valence_slider.response,valence_slider.rt,arousal_slider.response,arousal_slider.rt,trials.thisRepN,trials.thisTrialN,trials.thisN,trials.thisIndex,trials.ran,img_name,vm,am,manipulation,participant,date,expName,psychopyVersion,OS,frameRate
2.949438202,83.915,1.413857678,94.351,0,0,0,28,1,59_8568373b727f29d67ba6ce4c360dd918c8b08b13495fca56bdda5e82_circblurint.jpg,2.064896,0.505688,circularblurringint,dino02,2022-04-20_19h53.00.487,ratings,2022.1.1,Win32,59.95203837
-2.247191011,36.964,0.889513109,19.428,0,1,1,238,1,410_9633c4ff6e8888fcfca59a60ca86e9606d3e0736500a254101bdf295_circblurint.jpg,-0.3677892,2.981028,circularblurringint,dino02,2022-04-20_19h53.00.487,ratings,2022.1.1,Win32,59.95203837
-1.441947566,12.381,-2.837078652,17.42,0,2,2,224,1,403_57ac47f43882fc031a6067b1a388c0b2cbe8708dcbd2ff1019932eff_edges.jpg,-3.333332,-1.396824,edges,dino02,2022-04-20_19h53.00.487,ratings,2022.1.1,Win32,59.95203837
-1.760299625,16.09,-1.619850187,18.638,0,3,3,371,1,616_05a637f5281666f53d4e2ef69351485fc21d629b37ee2006b2076eb6_circblurext.jpg,-2.380952,-0.832364,circularblurringext,dino02,2022-04-20_19h53.00.487,ratings,2022.1.1,Win32,59.95203837
1.207865169,5.765,0.43071161,18.775,0,4,4,305,1,453_54f106fd1d4b65fa4aa347407127fc30d49f791e81aee3a0bbe44489_circblurext.jpg,2.222224,0.0,circularblurringext,dino02,2022-04-20_19h53.00.487,ratings,2022.1.1,Win32,59.95203837
-0.917602996,16.853,-0.74906367,30.516,0,5,5,562,1,1022_cf035e583d41a856836f8b0ae314ecbe79dffd9e40ef6a08cc26028f_circblurint.jpg,-0.2516452,3.05846,circularblurringint,dino02,2022-04-20_19h53.00.487,ratings,2022.1.1,Win32,59.95203837
1.376404494,7.71,0.449438202,52.256,0,6,6,200,1,380_34772591c787182a37724027eac6948ebc9d4064f6a601d23b923b8e_edges.jpg,2.222224,-0.063492,edges,dino02,2022-04-20_19h53.00.487,ratings,2022.1.1,Win32,59.95203837
0.533707865,3.414,-2.209737828,8.561,0,7,7,220,1,396_208259ea431d47bb7f3946213eb099834eb119756ce304ad473d4d9f_circblurint.jpg,2.857144,-0.3809524,circularblurringint,dino02,2022-04-20_19h53.00.487,ratings,2022.1.1,Win32,59.95203837
-2.200374532,13.954,-0.486891386,39.584,0,8,8,393,1,663_aaf52107fe3a86392530d88b34e86f9d2b6820714cad98d1e3c2cb67_blur.jpg,2.58766,0.0918696,blurring,dino02,2022-04-20_19h53.00.487,ratings,2022.1.1,Win32,59.95203837
-1.123595506,7.293,-0.449438202,13.751,0,9,9,194,1,379_eeaa6d9bf5a4ef205dc48bc505cf3a7f24ea86e99af9b371e03602a7_edges.jpg,-0.3926308,2.88936,edges,dino02,2022-04-20_19h53.00.487,ratings,2022.1.1,Win32,59.95203837
-2.162921348,6.2,0.514981273,18.357,0,10,10,385,1,646_577760d718dab44c6f04d77408c5644a120065ce07a9503957d0850a_bw.jpg,-2.690668,2.61324,blackwhite,dino02,2022-04-20_19h53.00.487,ratings,2022.1.1,Win32,59.95203837
-2.827715356,2.824,-2.668539326,8.634,0,11,11,104,1,284_cdcbd54fc995081ac95c8b2c37a19cebb341f61a8eb268cee1623492_edges.jpg,-1.015872,2.095236,edges,dino02,2022-04-20_19h53.00.487,ratings,2022.1.1,Win32,59.95203837
-4,3.409,1.722846442,14.951,0,12,12,136,1,349_8809a67686d34844c915d7700e2ea72ad1c02ae232ae0d3cc0e458d4_circblurint.jpg,-3.619048,-0.2857144,circularblurringint,dino02,2022-04-20_19h53.00.487,ratings,2022.1.1,Win32,59.95203837
-1.816479401,3.64,0.683520599,11.154,0,13,13,434,1,694_f80f33613b268beffd6c044537cf3b44a84683d6e889bc37b8e9c34b_edges.jpg,-0.3785616,3.34728,edges,dino02,2022-04-20_19h53.00.487,ratings,2022.1.1,Win32,59.95203837
-1.676029963,5.045,-0.739700375,9.401,0,14,14,214,1,394_8e3a0cb945144d53bd1ace04b6256237ed9dcbbd9cb83f8a4886b0e6_circblurint.jpg,-2.593884,2.651956,circularblurringint,dino02,2022-04-20_19h53.00.487,ratings,2022.1.1,Win32,59.95203837
-1.292134831,12.695,-2.715355805,14.286,0,15,15,103,1,284_cdcbd54fc995081ac95c8b2c37a19cebb341f61a8eb268cee1623492_bw.jpg,-1.015872,2.095236,blackwhite,dino02,2022-04-20_19h53.00.487,ratings,2022.1.1,Win32,59.95203837
0.646067416,3.291,-1.27340824,21.552,0,16,16,569,1,1037_e2eb929a6de79a63ce6cfe5321fcb74a203b134e4094932d90b01d99_circblurext.jpg,2.651956,0.0,circularblurringext,dino02,2022-04-20_19h53.00.487,ratings,2022.1.1,Win32,59.95203837
1.189138577,9.819,-2.041198502,12.472,0,17,17,34,1,60_ad52063167538de24f94d7dfd04808cb94cf8f426c40871d2f126505_circblurint.jpg,2.158732,0.0,circularblurringint,dino02,2022-04-20_19h53.00.487,ratings,2022.1.1,Win32,59.95203837
-4,3.532,2.668539326,4.979,0,18,18,331,1,482_a1cd28915c5044c018195ab0fff10dcc95e385246b045a7cd4463ff7_bw.jpg,-3.361852,-1.555612,blackwhite,dino02,2022-04-20_19h53.00.487,ratings,2022.1.1,Win32,59.95203837
-0.514981273,5.132,-2.078651685,7.819,0,19,19,438,1,700_59cb565f134f1afd066d7b6d936c6511b7cb76de0e9cbb5ce15124ad_orig.jpg,0.0,0.0,original,dino02,2022-04-20_19h53.00.487,ratings,2022.1.1,Win32,59.95203837
0.43071161,4.595,-0.992509363,12.885,0,20,20,150,1,355_00a76f54934d36566dd0e7b091b8aa6a56d8e6b32d349aa578a10b45_orig.jpg,2.910052,0.3439152,original,dino02,2022-04-20_19h53.00.487,ratings,2022.1.1,Win32,59.95203837
1.554307116,5.877,1.086142322,9.212,0,21,21,231,1,407_578d31d32e806706dde2563213f130b90e621abfed0e47ecabd85d27_blur.jpg,3.5873,-0.444444,blurring,dino02,2022-04-20_19h53.00.487,ratings,2022.1.1,Win32,59.95203837
-2.883895131,5.443,3.492509363,9.646,0,22,22,403,1,686_6745b57686ad5d1bd6cf3e7ed5bc0243a154f8939e88e30321dfcfdb_bw.jpg,-1.523808,3.650792,blackwhite,dino02,2022-04-20_19h53.00.487,ratings,2022.1.1,Win32,59.95203837
-0.440074906,8.303,-2.350187266,10.368,0,23,23,98,1,267_792043debad81ce271cec5b3c3bd9d264efc13f362bec9c7a3f72fe7_edges.jpg,1.980616,0.2107036,edges,dino02,2022-04-20_19h53.00.487,ratings,2022.1.1,Win32,59.95203837
1.11423221,4.492,0.355805243,7.894,0,24,24,116,1,332_4d584229bdae2e1782f77f0e953e528f13c3dfa79b4b94736c0310fa_edges.jpg,3.157348,0.483092,edges,dino02,2022-04-20_19h53.00.487,ratings,2022.1.1,Win32,59.95203837
-1.788389513,3.658,-2.256554307,6.761,0,25,25,317,1,459_46e25de472bb056cb470716d30937415f7344bfc4354d6eb710d8c9f_circblurext.jpg,0.03174604,0.0,circularblurringext,dino02,2022-04-20_19h53.00.487,ratings,2022.1.1,Win32,59.95203837
-0.917602996,13.971,0.205992509,18.832,0,26,26,559,1,1022_cf035e583d41a856836f8b0ae314ecbe79dffd9e40ef6a08cc26028f_bw.jpg,-0.2516452,3.05846,blackwhite,dino02,2022-04-20_19h53.00.487,ratings,2022.1.1,Win32,59.95203837
0.95505618,2.647,0.299625468,11.355,0,27,27,349,1,498_305b74cdc4784d9d25e72724302e5402def70177ea31ae7e25fab66b_bw.jpg,3.04762,-0.444444,blackwhite,dino02,2022-04-20_19h53.00.487,ratings,2022.1.1,Win32,59.95203837
-0.552434457,5.981,-1.975655431,8.151,0,28,28,477,1,748_e519892faa7c772a0afaf9eeff36cf0e411574027ab3d9aa4947a048_blur.jpg,-1.813112,3.307432,blurring,dino02,2022-04-20_19h53.00.487,ratings,2022.1.1,Win32,59.95203837
1.217228464,5.429,-2.574906367,7.316,0,29,29,180,1,369_98db62a1bdabfd1bc551180da6658005b461585cd21614633cf76470_orig.jpg,2.190476,-0.03174604,original,dino02,2022-04-20_19h53.00.487,ratings,2022.1.1,Win32,59.95203837
2.078651685,3.558,1.5917603,6.693,0,30,30,409,1,687_e3b018945792a574962235c88c553b7c318c75eec2596478e8a7b877_bw.jpg,3.63918,-0.42586,blackwhite,dino02,2022-04-20_19h53.00.487,ratings,2022.1.1,Win32,59.95203837
0.852059925,2.949,-1.479400749,11.799,0,31,31,506,1,855_66d893451dfd1e7615132071c6c8a82b02dc2b37781cd89400883b26_edges.jpg,2.69484,0.2143624,edges,dino02,2022-04-20_19h53.00.487,ratings,2022.1.1,Win32,59.95203837
0.543071161,4.599,-2.359550562,8.09,0,32,32,61,1,156_08e8cf8f04630e9213e610580de73f51572d1d589878648700bae4dc_bw.jpg,2.222224,0.0,blackwhite,dino02,2022-04-20_19h53.00.487,ratings,2022.1.1,Win32,59.95203837
1.535580524,20.142,-0.786516854,21.142,0,33,33,202,1,380_34772591c787182a37724027eac6948ebc9d4064f6a601d23b923b8e_circblurint.jpg,2.222224,-0.063492,circularblurringint,dino02,2022-04-20_19h53.00.487,ratings,2022.1.1,Win32,59.95203837
1.554307116,2.376,0.552434457,18.757,0,34,34,179,1,368_6507b94d7d0199f14efd3706db30c9c44b96085f84e9cc7792e3e0ae_circblurext.jpg,1.959544,0.400336,circularblurringext,dino02,2022-04-20_19h53.00.487,ratings,2022.1.1,Win32,59.95203837
0.393258427,4.175,0.983146067,6.319,0,35,35,502,1,854_081a8409e4d6d10923b2dedcc16a3fca405fcd602e55a20d84cac69d_circblurint.jpg,3.088264,1.21538,circularblurringint,dino02,2022-04-20_19h53.00.487,ratings,2022.1.1,Win32,59.95203837
-0.580524345,7.479,-2.284644195,10.821,0,36,36,594,1,1239_cee00457f4cfb76a407b12fd5ad714d440a4614c1e5467ee16caf618_orig.jpg,-0.03174604,0.190476,original,dino02,2022-04-20_19h53.00.487,ratings,2022.1.1,Win32,59.95203837
-0.299625468,7.457,-2.687265918,11.585,0,37,37,9,1,28_6318543b74eeb646a1735477ebc023fdc9ac3849bc0db1957c272a26_blur.jpg,2.811244,-0.74584,blurring,dino02,2022-04-20_19h53.00.487,ratings,2022.1.1,Win32,59.95203837
1.264044944,9.6,-0.514981273,20.291,0,38,38,278,1,440_9bf7e8609729bf888835168834da6c3ff30b75d0d4f36e2ee6918bcc_edges.jpg,-2.284164,2.710028,edges,dino02,2022-04-20_19h53.00.487,ratings,2022.1.1,Win32,59.95203837
-0.205992509,4.9,-2.808988764,9.186,0,39,39,7,1,28_6318543b74eeb646a1735477ebc023fdc9ac3849bc0db1957c272a26_bw.jpg,2.811244,-0.74584,blackwhite,dino02,2022-04-20_19h53.00.487,ratings,2022.1.1,Win32,59.95203837
1.722846442,2.356,1.076779026,8.101,0,40,40,40,1,82_43f4d5aec7c2e5bd495473f6708a0f2d47c9fe34e1fe9436646cb036_circblurint.jpg,2.022756,0.505688,circularblurringint,dino02,2022-04-20_19h53.00.487,ratings,2022.1.1,Win32,59.95203837
-0.936329588,8.134,-2.631086142,9.648,0,41,41,592,1,1228_557412d34d6a70b7c5d222e030aa485b351a4574e8ba1a3112d1d13d_circblurint.jpg,2.137444,0.703464,circularblurringint,dino02,2022-04-20_19h53.00.487,ratings,2022.1.1,Win32,59.95203837
-0.411985019,5.895,-2.265917603,9.667,0,42,42,221,1,396_208259ea431d47bb7f3946213eb099834eb119756ce304ad473d4d9f_circblurext.jpg,2.857144,-0.3809524,circularblurringext,dino02,2022-04-20_19h53.00.487,ratings,2022.1.1,Win32,59.95203837
-3.174157303,9.353,-2.855805243,14.443,0,43,43,318,1,460_e06b3af7ff2f2bfb5f9b6e3d5dc25b9aaa40b84823fac8fd934621bd_orig.jpg,-3.430992,-1.607468,original,dino02,2022-04-20_19h53.00.487,ratings,2022.1.1,Win32,59.95203837
-2.050561798,23.028,0.664794007,35.73,0,44,44,384,1,646_577760d718dab44c6f04d77408c5644a120065ce07a9503957d0850a_orig.jpg,-2.690668,2.61324,original,dino02,2022-04-20_19h53.00.487,ratings,2022.1.1,Win32,59.95203837
-1.11423221,11.663,0.168539326,14.572,0,45,45,484,1,759_95e1c46ed9a337414d5c8eada8fa8b9632e18751f5ce6ed587806e91_circblurint.jpg,2.126984,0.0,circularblurringint,dino02,2022-04-20_19h53.00.487,ratings,2022.1.1,Win32,59.95203837
-2.041198502,2.509,1.919475655,4.058,0,46,46,432,1,694_f80f33613b268beffd6c044537cf3b44a84683d6e889bc37b8e9c34b_orig.jpg,-0.3785616,3.34728,original,dino02,2022-04-20_19h53.00.487,ratings,2022.1.1,Win32,59.95203837
-0.009363296,13.772,-1.06741573,15.258,0,47,47,292,1,442_7449d79dae5d652af9b2429872cabdef938646ba024db2f431b3b28d_circblurint.jpg,1.619048,0.126984,circularblurringint,dino02,2022-04-20_19h53.00.487,ratings,2022.1.1,Win32,59.95203837
-0.009363296,4.67,-2.584269663,7.799,0,48,48,144,1,354_e46c3ec6fb00773f64f2bcd212385f253c389808fe724b7cf8611051_orig.jpg,2.018292,0.0,original,dino02,2022-04-20_19h53.00.487,ratings,2022.1.1,Win32,59.95203837
-2.18164794,3.092,-3.061797753,4.817,0,49,49,140,1,353_44e285740cb41818482ac93fc5fbd72c18029444a1d7506c9fc053e7_edges.jpg,-3.232676,-0.87108,edges,dino02,2022-04-20_19h53.00.487,ratings,2022.1.1,Win32,59.95203837
0.215355805,2.522,-3.267790262,6.015,0,50,50,545,1,1005_b980c0747d20935bc63cc27a9e05ce2ff5bae98f859872ec48edd7f5_circblurext.jpg,3.428572,-0.476192,circularblurringext,dino02,2022-04-20_19h53.00.487,ratings,2022.1.1,Win32,59.95203837
1.413857678,8.151,0.234082397,12.905,0,51,51,481,1,759_95e1c46ed9a337414d5c8eada8fa8b9632e18751f5ce6ed587806e91_bw.jpg,2.126984,0.0,blackwhite,dino02,2022-04-20_19h53.00.487,ratings,2022.1.1,Win32,59.95203837
-0.337078652,5.019,-2.088014981,8.204,0,52,52,302,1,453_54f106fd1d4b65fa4aa347407127fc30d49f791e81aee3a0bbe44489_edges.jpg,2.222224,0.0,edges,dino02,2022-04-20_19h53.00.487,ratings,2022.1.1,Win32,59.95203837
0.112359551,4.825,-3.511235955,9.93,0,53,53,541,1,1005_b980c0747d20935bc63cc27a9e05ce2ff5bae98f859872ec48edd7f5_bw.jpg,3.428572,-0.476192,blackwhite,dino02,2022-04-20_19h53.00.487,ratings,2022.1.1,Win32,59.95203837
-3.988764045,1.757,-2.631086142,17.197,0,54,54,138,1,353_44e285740cb41818482ac93fc5fbd72c18029444a1d7506c9fc053e7_orig.jpg,-3.232676,-0.87108,original,dino02,2022-04-20_19h53.00.487,ratings,2022.1.1,Win32,59.95203837
-2.18164794,3.848,0.646067416,7.896,0,55,55,271,1,434_ba36d91204d7e578001f6a545d7501e65d209554def5a3c8b7583825_bw.jpg,-3.523808,1.428572,blackwhite,dino02,2022-04-20_19h53.00.487,ratings,2022.1.1,Win32,59.95203837
-0.486891386,1.956,-2.968164794,9.462,0,56,56,441,1,700_59cb565f134f1afd066d7b6d936c6511b7cb76de0e9cbb5ce15124ad_blur.jpg,0.0,0.0,blurring,dino02,2022-04-20_19h53.00.487,ratings,2022.1.1,Win32,59.95203837
0.393258427,2.039,-0.355805243,4.664,0,57,57,219,1,396_208259ea431d47bb7f3946213eb099834eb119756ce304ad473d4d9f_blur.jpg,2.857144,-0.3809524,blurring,dino02,2022-04-20_19h53.00.487,ratings,2022.1.1,Win32,59.95203837
1.441947566,3.614,1.535580524,5.399,0,58,58,3,1,13_771f4fcf0a212d25d6a78565e7f34cc5ddd823e7afbdc77ef063326e_blur.jpg,2.190476,0.0,blurring,dino02,2022-04-20_19h53.00.487,ratings,2022.1.1,Win32,59.95203837
0.608614232,2.709,-1.329588015,21.926,0,59,59,97,1,267_792043debad81ce271cec5b3c3bd9d264efc13f362bec9c7a3f72fe7_bw.jpg,1.980616,0.2107036,blackwhite,dino02,2022-04-20_19h53.00.487,ratings,2022.1.1,Win32,59.95203837
0.486891386,2.128,0.702247191,5.142,0,60,60,352,1,498_305b74cdc4784d9d25e72724302e5402def70177ea31ae7e25fab66b_circblurint.jpg,3.04762,-0.444444,circularblurringint,dino02,2022-04-20_19h53.00.487,ratings,2022.1.1,Win32,59.95203837
-1.797752809,2.29,1.170411985,4.076,0,61,61,397,1,683_a004ad18331da968da5debdd15e1447dd7748750af0bc6c57b844200_bw.jpg,-2.91956,2.466524,blackwhite,dino02,2022-04-20_19h53.00.487,ratings,2022.1.1,Win32,59.95203837
-4,3.945,2.209737828,37.85,0,62,62,330,1,482_a1cd28915c5044c018195ab0fff10dcc95e385246b045a7cd4463ff7_orig.jpg,-3.361852,-1.555612,original,dino02,2022-04-20_19h53.00.487,ratings,2022.1.1,Win32,59.95203837
1.601123596,1.677,1.526217228,2.672,0,63,63,279,1,440_9bf7e8609729bf888835168834da6c3ff30b75d0d4f36e2ee6918bcc_blur.jpg,-2.284164,2.710028,blurring,dino02,2022-04-20_19h53.00.487,ratings,2022.1.1,Win32,59.95203837
-0.514981273,1.772,-2.743445693,3.08,0,64,64,347,1,494_5c6c3b85a2734a43c24bfe337d42ffcc82b7347227804d01c784cef4_circblurext.jpg,0.03871468,0.0,circularblurringext,dino02,2022-04-20_19h53.00.487,ratings,2022.1.1,Win32,59.95203837
-1.573033708,2.463,-0.234082397,3.948,0,65,65,475,1,748_e519892faa7c772a0afaf9eeff36cf0e411574027ab3d9aa4947a048_bw.jpg,-1.813112,3.307432,blackwhite,dino02,2022-04-20_19h53.00.487,ratings,2022.1.1,Win32,59.95203837
-0.393258427,2.732,-2.940074906,3.835,0,66,66,554,1,1014_a5c212ca979d482cf94c2db7697aba75620391a64b030ab7ad2bbecf_edges.jpg,-3.174604,-1.374372,edges,dino02,2022-04-20_19h53.00.487,ratings,2022.1.1,Win32,59.95203837
-3.192883895,5.733,2.191011236,6.795,0,67,67,162,1,361_b5541309527dc3c2422f45a95ebb0ed32005e6fe10d0489a1ff1fbdc_orig.jpg,-3.987612,-0.2516452,original,dino02,2022-04-20_19h53.00.487,ratings,2022.1.1,Win32,59.95203837
0.046816479,2.814,-3.052434457,6.104,0,68,68,218,1,396_208259ea431d47bb7f3946213eb099834eb119756ce304ad473d4d9f_edges.jpg,2.857144,-0.3809524,edges,dino02,2022-04-20_19h53.00.487,ratings,2022.1.1,Win32,59.95203837
-0.374531835,2.975,-3.426966292,4.611,0,69,69,530,1,915_dc9fd40a3b5d64a180833a7bac86e7556c24f681f473fe255e41f936_edges.jpg,-3.09294,-0.918696,edges,dino02,2022-04-20_19h53.00.487,ratings,2022.1.1,Win32,59.95203837
0.664794007,1.543,0.402621723,3.456,0,70,70,190,1,369_c99797771115d7627d4abe3415f814497288f91a7be1a04c17c776b9_circblurint.jpg,3.619824,-0.174216,circularblurringint,dino02,2022-04-20_19h53.00.487,ratings,2022.1.1,Win32,59.95203837
2.322097378,1.359,2.228464419,5.276,0,71,71,24,1,59_8568373b727f29d67ba6ce4c360dd918c8b08b13495fca56bdda5e82_orig.jpg,2.064896,0.505688,original,dino02,2022-04-20_19h53.00.487,ratings,2022.1.1,Win32,59.95203837
-2.65917603,2.513,-2.911985019,7.245,0,72,72,571,1,1039_d64da8480fc6e94dcdc513237d600570ae0b9fe48795ac6a8b2d29a7_bw.jpg,-2.507936,-1.142856,blackwhite,dino02,2022-04-20_19h53.00.487,ratings,2022.1.1,Win32,59.95203837
-0.299625468,1.996,-2.359550562,8.62,0,73,73,513,1,858_2f6539ee36aba48c38dc716d4f7c3ae93367d6ddf23ab41745d4172c_blur.jpg,0.0623832,0.176752,blurring,dino02,2022-04-20_19h53.00.487,ratings,2022.1.1,Win32,59.95203837
-0.758426966,4.643,-3.052434457,6.611,0,74,74,487,1,818_877aae033c31e3bbca4486321a5307f87cf53c576c546462d3daf194_bw.jpg,-1.277584,0.619436,blackwhite,dino02,2022-04-20_19h53.00.487,ratings,2022.1.1,Win32,59.95203837
0.47752809,3.164,0.168539326,5.542,0,75,75,74,1,236_f645730e1eb06155418c9a571329cc7fa320654fcaaedf1048b5cc11_edges.jpg,2.253968,0.0,edges,dino02,2022-04-20_19h53.00.487,ratings,2022.1.1,Win32,59.95203837
0.720973783,2.641,-1.423220974,4.417,0,76,76,338,1,492_a1a4d288d3bc486c83c3b6a835c42891989f5ba781633932298a7676_edges.jpg,3.406892,-0.44522,edges,dino02,2022-04-20_19h53.00.487,ratings,2022.1.1,Win32,59.95203837
-0.683520599,4.01,-1.779026217,4.783,0,77,77,207,1,381_5935a9f9796adce2f1539af6c75bcdc0c80d847a2ce9b77cf59b7672_blur.jpg,-1.327432,-0.442476,blurring,dino02,2022-04-20_19h53.00.487,ratings,2022.1.1,Win32,59.95203837
-3.286516854,5.137,1.956928839,6.515,0,78,78,167,1,361_b5541309527dc3c2422f45a95ebb0ed32005e6fe10d0489a1ff1fbdc_circblurext.jpg,-3.987612,-0.2516452,circularblurringext,dino02,2022-04-20_19h53.00.487,ratings,2022.1.1,Win32,59.95203837
0.411985019,3.394,-0.440074906,7.029,0,79,79,168,1,365_45a719cabbc9aa308c4fcb30d529489c6966ac4073874af84f665c61_orig.jpg,2.507936,-1.968252,original,dino02,2022-04-20_19h53.00.487,ratings,2022.1.1,Win32,59.95203837
0.365168539,1.874,-1.779026217,8.076,0,80,80,145,1,354_e46c3ec6fb00773f64f2bcd212385f253c389808fe724b7cf8611051_bw.jpg,2.018292,0.0,blackwhite,dino02,2022-04-20_19h53.00.487,ratings,2022.1.1,Win32,59.95203837
0.149812734,4.961,-1.985018727,5.81,0,81,81,146,1,354_e46c3ec6fb00773f64f2bcd212385f253c389808fe724b7cf8611051_edges.jpg,2.018292,0.0,edges,dino02,2022-04-20_19h53.00.487,ratings,2022.1.1,Win32,59.95203837
1.741573034,2.959,1.507490637,3.761,0,82,82,49,1,112_b6a4ce721c2e42943d7d8b168751d74cd2f372b1cd4fed5a4404faec_bw.jpg,2.107036,0.505688,blackwhite,dino02,2022-04-20_19h53.00.487,ratings,2022.1.1,Win32,59.95203837
-0.674157303,3.342,-2.780898876,7.049,0,83,83,299,1,449_9c1e990a3480e5b51430fe76b0188e69ba2468fd6a866b88b2d0dd75_circblurext.jpg,0.095238,0.03174604,circularblurringext,dino02,2022-04-20_19h53.00.487,ratings,2022.1.1,Win32,59.95203837
-0.243445693,15.609,-2.200374532,16.342,0,84,84,315,1,459_46e25de472bb056cb470716d30937415f7344bfc4354d6eb710d8c9f_blur.jpg,0.03174604,0.0,blurring,dino02,2022-04-20_19h53.00.487,ratings,2022.1.1,Win32,59.95203837
-0.973782772,2.543,-1.076779026,12.182,0,85,85,373,1,620_9674719009d75dcfeaed7f15932c43e1fd1af5e25d47b8aadd61efe2_bw.jpg,-0.561364,1.142084,blackwhite,dino02,2022-04-20_19h53.00.487,ratings,2022.1.1,Win32,59.95203837
-1.891385768,2.309,-2.593632959,4.494,0,86,86,394,1,663_aaf52107fe3a86392530d88b34e86f9d2b6820714cad98d1e3c2cb67_circblurint.jpg,2.58766,0.0918696,circularblurringint,dino02,2022-04-20_19h53.00.487,ratings,2022.1.1,Win32,59.95203837
-1.526217228,7.146,-2.050561798,8.291,0,87,87,310,1,455_34a7d8167619d110206c369e3f7dce8a3f99db763a9d8e2b956501d3_circblurint.jpg,-2.526412,-0.3827896,circularblurringint,dino02,2022-04-20_19h53.00.487,ratings,2022.1.1,Win32,59.95203837
0.458801498,1.781,0.514981273,3.681,0,88,88,30,1,60_ad52063167538de24f94d7dfd04808cb94cf8f426c40871d2f126505_orig.jpg,2.158732,0.0,original,dino02,2022-04-20_19h53.00.487,ratings,2022.1.1,Win32,59.95203837
1.310861423,1.521,2.265917603,4.617,0,89,89,499,1,854_081a8409e4d6d10923b2dedcc16a3fca405fcd602e55a20d84cac69d_bw.jpg,3.088264,1.21538,blackwhite,dino02,2022-04-20_19h53.00.487,ratings,2022.1.1,Win32,59.95203837
0.543071161,2.175,-0.074906367,4.866,0,90,90,11,1,28_6318543b74eeb646a1735477ebc023fdc9ac3849bc0db1957c272a26_circblurext.jpg,2.811244,-0.74584,circularblurringext,dino02,2022-04-20_19h53.00.487,ratings,2022.1.1,Win32,59.95203837
-0.355805243,3.886,-2.799625468,7.519,0,91,91,237,1,410_9633c4ff6e8888fcfca59a60ca86e9606d3e0736500a254101bdf295_blur.jpg,-0.3677892,2.981028,blurring,dino02,2022-04-20_19h53.00.487,ratings,2022.1.1,Win32,59.95203837
-0.58988764,16.092,-0.47752809,19.375,0,92,92,43,1,92_5d20d78a8e57e628c6930676473a4e0a485e715841efd6286c660020_bw.jpg,2.126984,0.0,blackwhite,dino02,2022-04-20_19h53.00.487,ratings,2022.1.1,Win32,59.95203837
-0.046816479,3.441,0.037453184,5.381,0,93,93,269,1,431_ab5a1dbbe9292ac7f74e276cdabcd372e2c1f852ff34bf7cc6646ef8_circblurext.jpg,3.102584,0.354334,circularblurringext,dino02,2022-04-20_19h53.00.487,ratings,2022.1.1,Win32,59.95203837
1.123595506,5.247,1.54494382,6.443,0,94,94,280,1,440_9bf7e8609729bf888835168834da6c3ff30b75d0d4f36e2ee6918bcc_circblurint.jpg,-2.284164,2.710028,circularblurringint,dino02,2022-04-20_19h53.00.487,ratings,2022.1.1,Win32,59.95203837
1.516853933,4.934,1.919475655,7.078,0,95,95,446,1,709_69c01dcde028a2a1a913f1a2a5026ae1748484f75c89217a040c6791_edges.jpg,1.432444,-0.01935732,edges,dino02,2022-04-20_19h53.00.487,ratings,2022.1.1,Win32,59.95203837
-0.374531835,6.821,-2.837078652,7.894,0,96,96,345,1,494_5c6c3b85a2734a43c24bfe337d42ffcc82b7347227804d01c784cef4_blur.jpg,0.03871468,0.0,blurring,dino02,2022-04-20_19h53.00.487,ratings,2022.1.1,Win32,59.95203837
-1.329588015,3.107,-2.97752809,4.86,0,97,97,368,1,616_05a637f5281666f53d4e2ef69351485fc21d629b37ee2006b2076eb6_edges.jpg,-2.380952,-0.832364,edges,dino02,2022-04-20_19h53.00.487,ratings,2022.1.1,Win32,59.95203837
-0.926966292,1.975,-2.593632959,3.228,0,98,98,215,1,394_8e3a0cb945144d53bd1ace04b6256237ed9dcbbd9cb83f8a4886b0e6_circblurext.jpg,-2.593884,2.651956,circularblurringext,dino02,2022-04-20_19h53.00.487,ratings,2022.1.1,Win32,59.95203837
-2.996254682,3.976,1.994382022,5.214,0,99,99,407,1,686_6745b57686ad5d1bd6cf3e7ed5bc0243a154f8939e88e30321dfcfdb_circblurext.jpg,-1.523808,3.650792,circularblurringext,dino02,2022-04-20_19h53.00.487,ratings,2022.1.1,Win32,59.95203837
0.374531835,3.926,-1.75093633,5.768,0,100,100,170,1,365_45a719cabbc9aa308c4fcb30d529489c6966ac4073874af84f665c61_edges.jpg,2.507936,-1.968252,edges,dino02,2022-04-20_19h53.00.487,ratings,2022.1.1,Win32,59.95203837
-0.936329588,4.509,-2.696629213,5.794,0,101,101,555,1,1014_a5c212ca979d482cf94c2db7697aba75620391a64b030ab7ad2bbecf_blur.jpg,-3.174604,-1.374372,blurring,dino02,2022-04-20_19h53.00.487,ratings,2022.1.1,Win32,59.95203837
0.571161049,1.63,0.234082397,3.979,0,102,102,382,1,640_0ddb4981a5f5842ed5b4f7ef941be53779189df5e718b1fc5475ad80_circblurint.jpg,2.571428,-1.873016,circularblurringint,dino02,2022-04-20_19h53.00.487,ratings,2022.1.1,Win32,59.95203837
0.112359551,6.261,0.74906367,10.09,0,103,103,46,1,92_5d20d78a8e57e628c6930676473a4e0a485e715841efd6286c660020_circblurint.jpg,2.126984,0.0,circularblurringint,dino02,2022-04-20_19h53.00.487,ratings,2022.1.1,Win32,59.95203837
-1.235955056,15.942,-3.164794007,17.363,0,104,104,295,1,449_9c1e990a3480e5b51430fe76b0188e69ba2468fd6a866b88b2d0dd75_bw.jpg,0.095238,0.03174604,blackwhite,dino02,2022-04-20_19h53.00.487,ratings,2022.1.1,Win32,59.95203837
0.028089888,4.774,-0.458801498,5.651,0,105,105,62,1,156_08e8cf8f04630e9213e610580de73f51572d1d589878648700bae4dc_edges.jpg,2.222224,0.0,edges,dino02,2022-04-20_19h53.00.487,ratings,2022.1.1,Win32,59.95203837
0.458801498,2.595,1.301498127,3.272,0,106,106,203,1,380_34772591c787182a37724027eac6948ebc9d4064f6a601d23b923b8e_circblurext.jpg,2.222224,-0.063492,circularblurringext,dino02,2022-04-20_19h53.00.487,ratings,2022.1.1,Win32,59.95203837
0.599250936,5.317,0.355805243,6.445,0,107,107,77,1,236_f645730e1eb06155418c9a571329cc7fa320654fcaaedf1048b5cc11_circblurext.jpg,2.253968,0.0,circularblurringext,dino02,2022-04-20_19h53.00.487,ratings,2022.1.1,Win32,59.95203837
1.498127341,1.477,1.329588015,2.378,0,108,108,339,1,492_a1a4d288d3bc486c83c3b6a835c42891989f5ba781633932298a7676_blur.jpg,3.406892,-0.44522,blurring,dino02,2022-04-20_19h53.00.487,ratings,2022.1.1,Win32,59.95203837
-0.702247191,5.045,-2.443820225,8.208,0,109,109,593,1,1228_557412d34d6a70b7c5d222e030aa485b351a4574e8ba1a3112d1d13d_circblurext.jpg,2.137444,0.703464,circularblurringext,dino02,2022-04-20_19h53.00.487,ratings,2022.1.1,Win32,59.95203837
0.917602996,1.874,1.685393258,2.576,0,110,110,483,1,759_95e1c46ed9a337414d5c8eada8fa8b9632e18751f5ce6ed587806e91_blur.jpg,2.126984,0.0,blurring,dino02,2022-04-20_19h53.00.487,ratings,2022.1.1,Win32,59.95203837
-0.449438202,3.557,-3.146067416,5.334,0,111,111,111,1,293_3dfdfafc0c6a54b2da7453750ac281f7718c0b3337b0a74c4563d6bd_blur.jpg,-2.574524,2.632596,blurring,dino02,2022-04-20_19h53.00.487,ratings,2022.1.1,Win32,59.95203837
-0.327715356,1.79,-2.986891386,2.891,0,112,112,439,1,700_59cb565f134f1afd066d7b6d936c6511b7cb76de0e9cbb5ce15124ad_bw.jpg,0.0,0.0,blackwhite,dino02,2022-04-20_19h53.00.487,ratings,2022.1.1,Win32,59.95203837
-3.45505618,1.978,2.509363296,3.1,0,113,113,495,1,824_b1d91cc824ce0d3d383d3147da88d3d6dbaf6be918bab79e3ec8f501_blur.jpg,-3.645176,-1.432784,blurring,dino02,2022-04-20_19h53.00.487,ratings,2022.1.1,Win32,59.95203837
0.47752809,2.173,-0.608614232,5.159,0,114,114,378,1,640_0ddb4981a5f5842ed5b4f7ef941be53779189df5e718b1fc5475ad80_orig.jpg,2.571428,-1.873016,original,dino02,2022-04-20_19h53.00.487,ratings,2022.1.1,Win32,59.95203837
0.627340824,1.965,0.964419476,3.878,0,115,115,413,1,687_e3b018945792a574962235c88c553b7c318c75eec2596478e8a7b877_circblurext.jpg,3.63918,-0.42586,circularblurringext,dino02,2022-04-20_19h53.00.487,ratings,2022.1.1,Win32,59.95203837
-1.741573034,1.974,0.449438202,5.319,0,116,116,389,1,646_577760d718dab44c6f04d77408c5644a120065ce07a9503957d0850a_circblurext.jpg,-2.690668,2.61324,circularblurringext,dino02,2022-04-20_19h53.00.487,ratings,2022.1.1,Win32,59.95203837
-2.209737828,2.171,1.666666667,3.743,0,117,117,355,1,500_3b520c7f352afa1a9f8c07e56cc0588cdc04d25ff6e7b602b5e280cb_bw.jpg,-0.8328,3.11766,blackwhite,dino02,2022-04-20_19h53.00.487,ratings,2022.1.1,Win32,59.95203837
0.739700375,7.029,0.571161049,4.779,0,118,118,465,1,736_bb85db1bcda8eb34299aa5791ac65a0a7c343266eb2d6e6e328ec0e1_blur.jpg,3.650792,-0.03174604,blurring,dino02,2022-04-20_19h53.00.487,ratings,2022.1.1,Win32,59.95203837
0.308988764,1.913,-1.498127341,4.444,0,119,119,112,1,293_3dfdfafc0c6a54b2da7453750ac281f7718c0b3337b0a74c4563d6bd_circblurint.jpg,-2.574524,2.632596,circularblurringint,dino02,2022-04-20_19h53.00.487,ratings,2022.1.1,Win32,59.95203837
-2.799625468,3.234,-3.099250936,8.886,0,120,120,246,1,414_0187bdf7007109b487865b6a9d388997a6817acf052a6a7cdd5b39d9_orig.jpg,-2.786708,-1.133056,original,dino02,2022-04-20_19h53.00.487,ratings,2022.1.1,Win32,59.95203837
2.003745318,1.89,2.097378277,4.409,0,121,121,39,1,82_43f4d5aec7c2e5bd495473f6708a0f2d47c9fe34e1fe9436646cb036_blur.jpg,2.022756,0.505688,blurring,dino02,2022-04-20_19h53.00.487,ratings,2022.1.1,Win32,59.95203837
0.964419476,1.532,1.310861423,2.789,0,122,122,341,1,492_a1a4d288d3bc486c83c3b6a835c42891989f5ba781633932298a7676_circblurext.jpg,3.406892,-0.44522,circularblurringext,dino02,2022-04-20_19h53.00.487,ratings,2022.1.1,Win32,59.95203837
0.337078652,5.427,-1.526217228,6.747,0,123,123,148,1,354_e46c3ec6fb00773f64f2bcd212385f253c389808fe724b7cf8611051_circblurint.jpg,2.018292,0.0,circularblurringint,dino02,2022-04-20_19h53.00.487,ratings,2022.1.1,Win32,59.95203837
1.254681648,1.483,1.310861423,2.75,0,124,124,52,1,112_b6a4ce721c2e42943d7d8b168751d74cd2f372b1cd4fed5a4404faec_circblurint.jpg,2.107036,0.505688,circularblurringint,dino02,2022-04-20_19h53.00.487,ratings,2022.1.1,Win32,59.95203837
-1.06741573,4.393,0.065543071,9.17,0,125,125,598,1,1239_cee00457f4cfb76a407b12fd5ad714d440a4614c1e5467ee16caf618_circblurint.jpg,-0.03174604,0.190476,circularblurringint,dino02,2022-04-20_19h53.00.487,ratings,2022.1.1,Win32,59.95203837
-1.254681648,10.385,-0.346441948,15.078,0,126,126,558,1,1022_cf035e583d41a856836f8b0ae314ecbe79dffd9e40ef6a08cc26028f_orig.jpg,-0.2516452,3.05846,original,dino02,2022-04-20_19h53.00.487,ratings,2022.1.1,Win32,59.95203837
-0.449438202,5.733,-1.498127341,8.494,0,127,127,21,1,48_2cc936b2483ab2944c9158e163342b874ef6c1492fd8fca08c0e096e_blur.jpg,-1.264224,-0.779604,blurring,dino02,2022-04-20_19h53.00.487,ratings,2022.1.1,Win32,59.95203837
0.777153558,1.956,0.009363296,3.514,0,128,128,81,1,242_85283f6935a89812ab229dcad9ba184529c9242ac3106d768ecf3ab3_blur.jpg,2.14918,-0.2949852,blurring,dino02,2022-04-20_19h53.00.487,ratings,2022.1.1,Win32,59.95203837
-0.47752809,2.697,-1.076779026,4.643,0,129,129,56,1,137_0e6a04243c0a42a5e2528a2d181255ca2a4b7bd6e7978c5c2059c69f_edges.jpg,-0.95238,2.095236,edges,dino02,2022-04-20_19h53.00.487,ratings,2022.1.1,Win32,59.95203837
-1.329588015,2.075,-2.528089888,3.593,0,130,130,572,1,1039_d64da8480fc6e94dcdc513237d600570ae0b9fe48795ac6a8b2d29a7_edges.jpg,-2.507936,-1.142856,edges,dino02,2022-04-20_19h53.00.487,ratings,2022.1.1,Win32,59.95203837
-1.694756554,3.243,-2.649812734,9.148,0,131,131,193,1,379_eeaa6d9bf5a4ef205dc48bc505cf3a7f24ea86e99af9b371e03602a7_bw.jpg,-0.3926308,2.88936,blackwhite,dino02,2022-04-20_19h53.00.487,ratings,2022.1.1,Win32,59.95203837
-0.018726592,7.218,0.196629213,8.113,0,132,132,44,1,92_5d20d78a8e57e628c6930676473a4e0a485e715841efd6286c660020_edges.jpg,2.126984,0.0,edges,dino02,2022-04-20_19h53.00.487,ratings,2022.1.1,Win32,59.95203837
-0.440074906,4.359,-2.312734082,19.424,0,133,133,206,1,381_5935a9f9796adce2f1539af6c75bcdc0c80d847a2ce9b77cf59b7672_edges.jpg,-1.327432,-0.442476,edges,dino02,2022-04-20_19h53.00.487,ratings,2022.1.1,Win32,59.95203837
-3.558052434,2.024,2.687265918,3.123,0,134,134,334,1,482_a1cd28915c5044c018195ab0fff10dcc95e385246b045a7cd4463ff7_circblurint.jpg,-3.361852,-1.555612,circularblurringint,dino02,2022-04-20_19h53.00.487,ratings,2022.1.1,Win32,59.95203837
-1.245318352,2.027,-1.610486891,3.74,0,135,135,192,1,379_eeaa6d9bf5a4ef205dc48bc505cf3a7f24ea86e99af9b371e03602a7_orig.jpg,-0.3926308,2.88936,original,dino02,2022-04-20_19h53.00.487,ratings,2022.1.1,Win32,59.95203837
1.189138577,1.583,1.507490637,2.576,0,136,136,229,1,407_578d31d32e806706dde2563213f130b90e621abfed0e47ecabd85d27_bw.jpg,3.5873,-0.444444,blackwhite,dino02,2022-04-20_19h53.00.487,ratings,2022.1.1,Win32,59.95203837
-2.106741573,3.565,1.563670412,4.335,0,137,137,354,1,500_3b520c7f352afa1a9f8c07e56cc0588cdc04d25ff6e7b602b5e280cb_orig.jpg,-0.8328,3.11766,original,dino02,2022-04-20_19h53.00.487,ratings,2022.1.1,Win32,59.95203837
-3.192883895,1.373,1.928838951,2.398,0,138,138,539,1,986_a77edb21e78bc3a6aa7406517824596b3496ad6c657b6befb84cf370_circblurext.jpg,-3.906316,-0.60496,circularblurringext,dino02,2022-04-20_19h53.00.487,ratings,2022.1.1,Win32,59.95203837
-0.786516854,4.651,-2.949438202,6.729,0,139,139,298,1,449_9c1e990a3480e5b51430fe76b0188e69ba2468fd6a866b88b2d0dd75_circblurint.jpg,0.095238,0.03174604,circularblurringint,dino02,2022-04-20_19h53.00.487,ratings,2022.1.1,Win32,59.95203837
-2.209737828,2.626,-2.415730337,4.927,0,140,140,107,1,284_cdcbd54fc995081ac95c8b2c37a19cebb341f61a8eb268cee1623492_circblurext.jpg,-1.015872,2.095236,circularblurringext,dino02,2022-04-20_19h53.00.487,ratings,2022.1.1,Win32,59.95203837
-0.056179775,2.931,-1.43258427,5.244,0,141,141,47,1,92_5d20d78a8e57e628c6930676473a4e0a485e715841efd6286c660020_circblurext.jpg,2.126984,0.0,circularblurringext,dino02,2022-04-20_19h53.00.487,ratings,2022.1.1,Win32,59.95203837
-2.593632959,4.625,-2.724719101,6.259,0,142,142,323,1,460_e06b3af7ff2f2bfb5f9b6e3d5dc25b9aaa40b84823fac8fd934621bd_circblurext.jpg,-3.430992,-1.607468,circularblurringext,dino02,2022-04-20_19h53.00.487,ratings,2022.1.1,Win32,59.95203837
0.767790262,8.313,0.692883895,9.098,0,143,143,507,1,855_66d893451dfd1e7615132071c6c8a82b02dc2b37781cd89400883b26_blur.jpg,2.69484,0.2143624,blurring,dino02,2022-04-20_19h53.00.487,ratings,2022.1.1,Win32,59.95203837
0.533707865,2.078,0.468164794,4.509,0,144,144,33,1,60_ad52063167538de24f94d7dfd04808cb94cf8f426c40871d2f126505_blur.jpg,2.158732,0.0,blurring,dino02,2022-04-20_19h53.00.487,ratings,2022.1.1,Win32,59.95203837
0.739700375,5.346,-1.198501873,6.463,0,145,145,223,1,403_57ac47f43882fc031a6067b1a388c0b2cbe8708dcbd2ff1019932eff_bw.jpg,-3.333332,-1.396824,blackwhite,dino02,2022-04-20_19h53.00.487,ratings,2022.1.1,Win32,59.95203837
-0.805243446,5.668,-2.003745318,7.778,0,146,146,486,1,818_877aae033c31e3bbca4486321a5307f87cf53c576c546462d3daf194_orig.jpg,-1.277584,0.619436,original,dino02,2022-04-20_19h53.00.487,ratings,2022.1.1,Win32,59.95203837
0.880149813,4.265,0.411985019,5.884,0,147,147,14,1,39_2fafccaa4dc69045a05845f59c6b3cd2edcf7e0e0c108b24e553afe0_edges.jpg,2.022756,0.463548,edges,dino02,2022-04-20_19h53.00.487,ratings,2022.1.1,Win32,59.95203837
-0.449438202,1.824,-2.153558052,3.796,0,148,148,19,1,48_2cc936b2483ab2944c9158e163342b874ef6c1492fd8fca08c0e096e_bw.jpg,-1.264224,-0.779604,blackwhite,dino02,2022-04-20_19h53.00.487,ratings,2022.1.1,Win32,59.95203837
-3.361423221,3.124,2.415730337,6.864,0,149,149,335,1,482_a1cd28915c5044c018195ab0fff10dcc95e385246b045a7cd4463ff7_circblurext.jpg,-3.361852,-1.555612,circularblurringext,dino02,2022-04-20_19h53.00.487,ratings,2022.1.1,Win32,59.95203837
-0.243445693,15.703,-2.631086142,18.713,0,150,150,289,1,442_7449d79dae5d652af9b2429872cabdef938646ba024db2f431b3b28d_bw.jpg,1.619048,0.126984,blackwhite,dino02,2022-04-20_19h53.00.487,ratings,2022.1.1,Win32,59.95203837
0.758426966,1.912,1.011235955,2.656,0,151,151,264,1,431_ab5a1dbbe9292ac7f74e276cdabcd372e2c1f852ff34bf7cc6646ef8_orig.jpg,3.102584,0.354334,original,dino02,2022-04-20_19h53.00.487,ratings,2022.1.1,Win32,59.95203837
0.374531835,2.294,0.571161049,3.194,0,152,152,549,1,1010_06d15f44b979c086561137000ec070ba4cd479856f92840a7850b2bf_blur.jpg,0.189786,-0.189786,blurring,dino02,2022-04-20_19h53.00.487,ratings,2022.1.1,Win32,59.95203837
0.280898876,3.617,0.140449438,4.977,0,153,153,225,1,403_57ac47f43882fc031a6067b1a388c0b2cbe8708dcbd2ff1019932eff_blur.jpg,-3.333332,-1.396824,blurring,dino02,2022-04-20_19h53.00.487,ratings,2022.1.1,Win32,59.95203837
-1.516853933,1.361,0.543071161,4.493,0,154,154,478,1,748_e519892faa7c772a0afaf9eeff36cf0e411574027ab3d9aa4947a048_circblurint.jpg,-1.813112,3.307432,circularblurringint,dino02,2022-04-20_19h53.00.487,ratings,2022.1.1,Win32,59.95203837
0.15917603,5.886,-1.235955056,7.852,0,155,155,547,1,1010_06d15f44b979c086561137000ec070ba4cd479856f92840a7850b2bf_bw.jpg,0.189786,-0.189786,blackwhite,dino02,2022-04-20_19h53.00.487,ratings,2022.1.1,Win32,59.95203837
-2.565543071,2.038,-2.649812734,3.14,0,156,156,247,1,414_0187bdf7007109b487865b6a9d388997a6817acf052a6a7cdd5b39d9_bw.jpg,-2.786708,-1.133056,blackwhite,dino02,2022-04-20_19h53.00.487,ratings,2022.1.1,Win32,59.95203837
2.303370787,3.098,2.265917603,4.076,0,157,157,29,1,59_8568373b727f29d67ba6ce4c360dd918c8b08b13495fca56bdda5e82_circblurext.jpg,2.064896,0.505688,circularblurringext,dino02,2022-04-20_19h53.00.487,ratings,2022.1.1,Win32,59.95203837
0.617977528,1.959,-1.694756554,4.4,0,158,158,100,1,267_792043debad81ce271cec5b3c3bd9d264efc13f362bec9c7a3f72fe7_circblurint.jpg,1.980616,0.2107036,circularblurringint,dino02,2022-04-20_19h53.00.487,ratings,2022.1.1,Win32,59.95203837
-0.945692884,4.676,-0.290262172,9.835,0,159,159,283,1,440_dc6413e2b65369ee2587f4d85621742fe4ca87392d0a8ad2ea7d94e3_bw.jpg,-3.016216,1.69404,blackwhite,dino02,2022-04-20_19h53.00.487,ratings,2022.1.1,Win32,59.95203837
1.235955056,7.231,1.179775281,11.181,0,160,160,12,1,39_2fafccaa4dc69045a05845f59c6b3cd2edcf7e0e0c108b24e553afe0_orig.jpg,2.022756,0.463548,original,dino02,2022-04-20_19h53.00.487,ratings,2022.1.1,Win32,59.95203837
0.720973783,4.525,0.440074906,7.769,0,161,161,32,1,60_ad52063167538de24f94d7dfd04808cb94cf8f426c40871d2f126505_edges.jpg,2.158732,0.0,edges,dino02,2022-04-20_19h53.00.487,ratings,2022.1.1,Win32,59.95203837
0.280898876,5.783,-1.329588015,8.489,0,162,162,186,1,369_c99797771115d7627d4abe3415f814497288f91a7be1a04c17c776b9_orig.jpg,3.619824,-0.174216,original,dino02,2022-04-20_19h53.00.487,ratings,2022.1.1,Win32,59.95203837
-0.777153558,2.918,-2.350187266,5.767,0,163,163,311,1,455_34a7d8167619d110206c369e3f7dce8a3f99db763a9d8e2b956501d3_circblurext.jpg,-2.526412,-0.3827896,circularblurringext,dino02,2022-04-20_19h53.00.487,ratings,2022.1.1,Win32,59.95203837
-1.001872659,3.241,-3.305243446,4.064,0,164,164,294,1,449_9c1e990a3480e5b51430fe76b0188e69ba2468fd6a866b88b2d0dd75_orig.jpg,0.095238,0.03174604,original,dino02,2022-04-20_19h53.00.487,ratings,2022.1.1,Win32,59.95203837
-0.028089888,5.576,-0.308988764,7.403,0,165,165,390,1,663_aaf52107fe3a86392530d88b34e86f9d2b6820714cad98d1e3c2cb67_orig.jpg,2.58766,0.0918696,original,dino02,2022-04-20_19h53.00.487,ratings,2022.1.1,Win32,59.95203837
0.271535581,5.66,-0.945692884,8.25,0,166,166,253,1,416_5eb54976bb41ce2a6d129ef985f792e716f010fb9b69b15f50f5d2db_bw.jpg,-2.58766,2.602972,blackwhite,dino02,2022-04-20_19h53.00.487,ratings,2022.1.1,Win32,59.95203837
-1.5917603,1.696,-1.975655431,3.369,0,167,167,367,1,616_05a637f5281666f53d4e2ef69351485fc21d629b37ee2006b2076eb6_bw.jpg,-2.380952,-0.832364,blackwhite,dino02,2022-04-20_19h53.00.487,ratings,2022.1.1,Win32,59.95203837
0.140449438,3.209,-3.052434457,5.353,0,168,168,297,1,449_9c1e990a3480e5b51430fe76b0188e69ba2468fd6a866b88b2d0dd75_blur.jpg,0.095238,0.03174604,blurring,dino02,2022-04-20_19h53.00.487,ratings,2022.1.1,Win32,59.95203837
0.149812734,4.751,-0.608614232,12.075,0,169,169,266,1,431_ab5a1dbbe9292ac7f74e276cdabcd372e2c1f852ff34bf7cc6646ef8_edges.jpg,3.102584,0.354334,edges,dino02,2022-04-20_19h53.00.487,ratings,2022.1.1,Win32,59.95203837
0.121722846,2.742,0.823970037,4.357,0,170,170,82,1,242_85283f6935a89812ab229dcad9ba184529c9242ac3106d768ecf3ab3_circblurint.jpg,2.14918,-0.2949852,circularblurringint,dino02,2022-04-20_19h53.00.487,ratings,2022.1.1,Win32,59.95203837
-0.018726592,3.777,-0.627340824,4.813,0,171,171,452,1,716_2ab64478147184c4df720a52cf621875addc9007cb2967e4a9a88909_edges.jpg,2.428484,0.0,edges,dino02,2022-04-20_19h53.00.487,ratings,2022.1.1,Win32,59.95203837
1.985018727,2.223,2.134831461,3.124,0,172,172,26,1,59_8568373b727f29d67ba6ce4c360dd918c8b08b13495fca56bdda5e82_edges.jpg,2.064896,0.505688,edges,dino02,2022-04-20_19h53.00.487,ratings,2022.1.1,Win32,59.95203837
-2.546816479,1.564,-2.808988764,9.853,0,173,173,133,1,349_8809a67686d34844c915d7700e2ea72ad1c02ae232ae0d3cc0e458d4_bw.jpg,-3.619048,-0.2857144,blackwhite,dino02,2022-04-20_19h53.00.487,ratings,2022.1.1,Win32,59.95203837
-3.24906367,14.735,-2.799625468,15.568,0,174,174,497,1,824_b1d91cc824ce0d3d383d3147da88d3d6dbaf6be918bab79e3ec8f501_circblurext.jpg,-3.645176,-1.432784,circularblurringext,dino02,2022-04-20_19h53.00.487,ratings,2022.1.1,Win32,59.95203837
-1.020599251,7.078,-1.095505618,8.213,0,175,175,369,1,616_05a637f5281666f53d4e2ef69351485fc21d629b37ee2006b2076eb6_blur.jpg,-2.380952,-0.832364,blurring,dino02,2022-04-20_19h53.00.487,ratings,2022.1.1,Win32,59.95203837
-1.666666667,1.64,-1.844569288,4.986,0,176,176,356,1,500_3b520c7f352afa1a9f8c07e56cc0588cdc04d25ff6e7b602b5e280cb_edges.jpg,-0.8328,3.11766,edges,dino02,2022-04-20_19h53.00.487,ratings,2022.1.1,Win32,59.95203837
1.657303371,3.389,1.54494382,4.379,0,177,177,498,1,854_081a8409e4d6d10923b2dedcc16a3fca405fcd602e55a20d84cac69d_orig.jpg,3.088264,1.21538,original,dino02,2022-04-20_19h53.00.487,ratings,2022.1.1,Win32,59.95203837
0.121722846,1.925,0.262172285,3.666,0,178,178,42,1,92_5d20d78a8e57e628c6930676473a4e0a485e715841efd6286c660020_orig.jpg,2.126984,0.0,original,dino02,2022-04-20_19h53.00.487,ratings,2022.1.1,Win32,59.95203837
-0.290262172,1.813,-2.191011236,3.857,0,179,179,296,1,449_9c1e990a3480e5b51430fe76b0188e69ba2468fd6a866b88b2d0dd75_edges.jpg,0.095238,0.03174604,edges,dino02,2022-04-20_19h53.00.487,ratings,2022.1.1,Win32,59.95203837
0.880149813,1.579,0.758426966,2.375,0,180,180,48,1,112_b6a4ce721c2e42943d7d8b168751d74cd2f372b1cd4fed5a4404faec_orig.jpg,2.107036,0.505688,original,dino02,2022-04-20_19h53.00.487,ratings,2022.1.1,Win32,59.95203837
-1.694756554,1.99,1.329588015,6.533,0,181,181,357,1,500_3b520c7f352afa1a9f8c07e56cc0588cdc04d25ff6e7b602b5e280cb_blur.jpg,-0.8328,3.11766,blurring,dino02,2022-04-20_19h53.00.487,ratings,2022.1.1,Win32,59.95203837
-1.413857678,1.93,1.395131086,2.902,0,182,182,396,1,683_a004ad18331da968da5debdd15e1447dd7748750af0bc6c57b844200_orig.jpg,-2.91956,2.466524,original,dino02,2022-04-20_19h53.00.487,ratings,2022.1.1,Win32,59.95203837
-1.254681648,5.611,0.47752809,8.538,0,183,183,102,1,284_cdcbd54fc995081ac95c8b2c37a19cebb341f61a8eb268cee1623492_orig.jpg,-1.015872,2.095236,original,dino02,2022-04-20_19h53.00.487,ratings,2022.1.1,Win32,59.95203837
0.31835206,4.478,-2.153558052,6.921,0,184,184,550,1,1010_06d15f44b979c086561137000ec070ba4cd479856f92840a7850b2bf_circblurint.jpg,0.189786,-0.189786,circularblurringint,dino02,2022-04-20_19h53.00.487,ratings,2022.1.1,Win32,59.95203837
0.234082397,5.833,0.131086142,9.955,0,185,185,153,1,355_00a76f54934d36566dd0e7b091b8aa6a56d8e6b32d349aa578a10b45_blur.jpg,2.910052,0.3439152,blurring,dino02,2022-04-20_19h53.00.487,ratings,2022.1.1,Win32,59.95203837
-0.599250936,13.558,-2.294007491,14.853,0,186,186,86,1,243_beddb302dcb21071d88c8d2cab07002050d36b3001ef28f89389fa56_edges.jpg,-0.3450656,-0.2070392,edges,dino02,2022-04-20_19h53.00.487,ratings,2022.1.1,Win32,59.95203837
-2.434456929,4.114,-2.752808989,7.88,0,187,187,358,1,500_3b520c7f352afa1a9f8c07e56cc0588cdc04d25ff6e7b602b5e280cb_circblurint.jpg,-0.8328,3.11766,circularblurringint,dino02,2022-04-20_19h53.00.487,ratings,2022.1.1,Win32,59.95203837
0.252808989,6.482,0.346441948,7.228,0,188,188,199,1,380_34772591c787182a37724027eac6948ebc9d4064f6a601d23b923b8e_bw.jpg,2.222224,-0.063492,blackwhite,dino02,2022-04-20_19h53.00.487,ratings,2022.1.1,Win32,59.95203837
0.028089888,3.509,-0.945692884,5.227,0,189,189,454,1,716_2ab64478147184c4df720a52cf621875addc9007cb2967e4a9a88909_circblurint.jpg,2.428484,0.0,circularblurringint,dino02,2022-04-20_19h53.00.487,ratings,2022.1.1,Win32,59.95203837
-0.393258427,2.677,-2.602996255,5.094,0,190,190,89,1,243_beddb302dcb21071d88c8d2cab07002050d36b3001ef28f89389fa56_circblurext.jpg,-0.3450656,-0.2070392,circularblurringext,dino02,2022-04-20_19h53.00.487,ratings,2022.1.1,Win32,59.95203837
-1.104868914,2.063,-1.310861423,5.027,0,191,191,510,1,858_2f6539ee36aba48c38dc716d4f7c3ae93367d6ddf23ab41745d4172c_orig.jpg,0.0623832,0.176752,original,dino02,2022-04-20_19h53.00.487,ratings,2022.1.1,Win32,59.95203837
0.355805243,2.628,-0.243445693,4.299,0,192,192,80,1,242_85283f6935a89812ab229dcad9ba184529c9242ac3106d768ecf3ab3_edges.jpg,2.14918,-0.2949852,edges,dino02,2022-04-20_19h53.00.487,ratings,2022.1.1,Win32,59.95203837
0.758426966,1.541,0.571161049,2.323,0,193,193,410,1,687_e3b018945792a574962235c88c553b7c318c75eec2596478e8a7b877_edges.jpg,3.63918,-0.42586,edges,dino02,2022-04-20_19h53.00.487,ratings,2022.1.1,Win32,59.95203837
-0.786516854,2.73,-2.350187266,3.582,0,194,194,197,1,379_eeaa6d9bf5a4ef205dc48bc505cf3a7f24ea86e99af9b371e03602a7_circblurext.jpg,-0.3926308,2.88936,circularblurringext,dino02,2022-04-20_19h53.00.487,ratings,2022.1.1,Win32,59.95203837
-0.95505618,2.726,-1.797752809,3.909,0,195,195,417,1,692_7d7eaf20e6de8956f0fca7500ace97a8599aa8b605a7d690cdb28724_blur.jpg,-2.063492,-1.26984,blurring,dino02,2022-04-20_19h53.00.487,ratings,2022.1.1,Win32,59.95203837
-0.205992509,5.26,-2.443820225,8.14,0,196,196,58,1,137_0e6a04243c0a42a5e2528a2d181255ca2a4b7bd6e7978c5c2059c69f_circblurint.jpg,-0.95238,2.095236,circularblurringint,dino02,2022-04-20_19h53.00.487,ratings,2022.1.1,Win32,59.95203837
1.235955056,2.475,1.367041199,3.225,0,197,197,0,1,13_771f4fcf0a212d25d6a78565e7f34cc5ddd823e7afbdc77ef063326e_orig.jpg,2.190476,0.0,original,dino02,2022-04-20_19h53.00.487,ratings,2022.1.1,Win32,59.95203837
1.853932584,1.424,2.471910112,2.129,0,198,198,118,1,332_4d584229bdae2e1782f77f0e953e528f13c3dfa79b4b94736c0310fa_circblurint.jpg,3.157348,0.483092,circularblurringint,dino02,2022-04-20_19h53.00.487,ratings,2022.1.1,Win32,59.95203837
0.524344569,2.374,0.215355805,3.908,0,199,199,171,1,365_45a719cabbc9aa308c4fcb30d529489c6966ac4073874af84f665c61_blur.jpg,2.507936,-1.968252,blurring,dino02,2022-04-20_19h53.00.487,ratings,2022.1.1,Win32,59.95203837
0.327715356,3.658,0.290262172,5.698,0,200,200,73,1,236_f645730e1eb06155418c9a571329cc7fa320654fcaaedf1048b5cc11_bw.jpg,2.253968,0.0,blackwhite,dino02,2022-04-20_19h53.00.487,ratings,2022.1.1,Win32,59.95203837
1.132958801,1.574,1.179775281,3.223,0,201,201,447,1,709_69c01dcde028a2a1a913f1a2a5026ae1748484f75c89217a040c6791_blur.jpg,1.432444,-0.01935732,blurring,dino02,2022-04-20_19h53.00.487,ratings,2022.1.1,Win32,59.95203837
0.074906367,5.397,-1.06741573,6.533,0,202,202,110,1,293_3dfdfafc0c6a54b2da7453750ac281f7718c0b3337b0a74c4563d6bd_edges.jpg,-2.574524,2.632596,edges,dino02,2022-04-20_19h53.00.487,ratings,2022.1.1,Win32,59.95203837
0.121722846,2.108,-2.443820225,5.232,0,203,203,255,1,416_5eb54976bb41ce2a6d129ef985f792e716f010fb9b69b15f50f5d2db_blur.jpg,-2.58766,2.602972,blurring,dino02,2022-04-20_19h53.00.487,ratings,2022.1.1,Win32,59.95203837
-0.95505618,7.93,-1.104868914,11.769,0,204,204,212,1,394_8e3a0cb945144d53bd1ace04b6256237ed9dcbbd9cb83f8a4886b0e6_edges.jpg,-2.593884,2.651956,edges,dino02,2022-04-20_19h53.00.487,ratings,2022.1.1,Win32,59.95203837
0.374531835,1.373,-0.814606742,7.116,0,205,205,379,1,640_0ddb4981a5f5842ed5b4f7ef941be53779189df5e718b1fc5475ad80_bw.jpg,2.571428,-1.873016,blackwhite,dino02,2022-04-20_19h53.00.487,ratings,2022.1.1,Win32,59.95203837
0.580524345,2.974,0.524344569,3.979,0,206,206,523,1,877_cab3efed0c9ff4552037df6c1ea4ea9713f915c94592a14dbf2799da_bw.jpg,3.174604,0.3174604,blackwhite,dino02,2022-04-20_19h53.00.487,ratings,2022.1.1,Win32,59.95203837
-0.898876404,7.5,-2.125468165,8.805,0,207,207,344,1,494_5c6c3b85a2734a43c24bfe337d42ffcc82b7347227804d01c784cef4_edges.jpg,0.03871468,0.0,edges,dino02,2022-04-20_19h53.00.487,ratings,2022.1.1,Win32,59.95203837
1.011235955,1.997,1.376404494,2.797,0,208,208,448,1,709_69c01dcde028a2a1a913f1a2a5026ae1748484f75c89217a040c6791_circblurint.jpg,1.432444,-0.01935732,circularblurringint,dino02,2022-04-20_19h53.00.487,ratings,2022.1.1,Win32,59.95203837
1.329588015,1.974,1.451310861,3.308,0,209,209,125,1,347_27f0e47c2722605b950ccf9fa900f78271e4c3c874064ab5dacac160_circblurext.jpg,1.838948,0.3097172,circularblurringext,dino02,2022-04-20_19h53.00.487,ratings,2022.1.1,Win32,59.95203837
-0.505617978,9.98,-0.486891386,11.404,0,210,210,324,1,468_8b69b13120daebadd8a4a3166e1419f2404395cba231307a4efa9fde_orig.jpg,2.031744,0.2539684,original,dino02,2022-04-20_19h53.00.487,ratings,2022.1.1,Win32,59.95203837
0.102996255,2.191,-0.084269663,3.997,0,211,211,472,1,741_2b218fb015e3da83db73cacdb52e61e0c2534c1fe255bb1c5c74d47f_circblurint.jpg,3.140096,0.448584,circularblurringint,dino02,2022-04-20_19h53.00.487,ratings,2022.1.1,Win32,59.95203837
1.029962547,1.49,0.870786517,2.458,0,212,212,500,1,854_081a8409e4d6d10923b2dedcc16a3fca405fcd602e55a20d84cac69d_edges.jpg,3.088264,1.21538,edges,dino02,2022-04-20_19h53.00.487,ratings,2022.1.1,Win32,59.95203837
-0.037453184,4.483,-1.264044944,5.568,0,213,213,8,1,28_6318543b74eeb646a1735477ebc023fdc9ac3849bc0db1957c272a26_edges.jpg,2.811244,-0.74584,edges,dino02,2022-04-20_19h53.00.487,ratings,2022.1.1,Win32,59.95203837
0.739700375,3.514,-0.393258427,5.811,0,214,214,304,1,453_54f106fd1d4b65fa4aa347407127fc30d49f791e81aee3a0bbe44489_circblurint.jpg,2.222224,0.0,circularblurringint,dino02,2022-04-20_19h53.00.487,ratings,2022.1.1,Win32,59.95203837
0.234082397,2.146,-0.608614232,11.597,0,215,215,303,1,453_54f106fd1d4b65fa4aa347407127fc30d49f791e81aee3a0bbe44489_blur.jpg,2.222224,0.0,blurring,dino02,2022-04-20_19h53.00.487,ratings,2022.1.1,Win32,59.95203837
-0.95505618,4.275,-0.580524345,8.783,0,216,216,252,1,416_5eb54976bb41ce2a6d129ef985f792e716f010fb9b69b15f50f5d2db_orig.jpg,-2.58766,2.602972,original,dino02,2022-04-20_19h53.00.487,ratings,2022.1.1,Win32,59.95203837
1.020599251,2.029,0.9082397,3.024,0,217,217,13,1,39_2fafccaa4dc69045a05845f59c6b3cd2edcf7e0e0c108b24e553afe0_bw.jpg,2.022756,0.463548,blackwhite,dino02,2022-04-20_19h53.00.487,ratings,2022.1.1,Win32,59.95203837
0.411985019,1.791,-0.74906367,9.434,0,218,218,565,1,1037_e2eb929a6de79a63ce6cfe5321fcb74a203b134e4094932d90b01d99_bw.jpg,2.651956,0.0,blackwhite,dino02,2022-04-20_19h53.00.487,ratings,2022.1.1,Win32,59.95203837
-2.715355805,1.589,-2.368913858,2.356,0,219,219,244,1,411_adfd0d5782129756321ff671d0cfb712528504c66c863df11aabd1e7_circblurint.jpg,-3.392332,-1.369576,circularblurringint,dino02,2022-04-20_19h53.00.487,ratings,2022.1.1,Win32,59.95203837
-0.028089888,1.678,-1.919475655,5.868,0,220,220,336,1,492_a1a4d288d3bc486c83c3b6a835c42891989f5ba781633932298a7676_orig.jpg,3.406892,-0.44522,original,dino02,2022-04-20_19h53.00.487,ratings,2022.1.1,Win32,59.95203837
-2.303370787,8.331,-2.387640449,12.472,0,221,221,359,1,500_3b520c7f352afa1a9f8c07e56cc0588cdc04d25ff6e7b602b5e280cb_circblurext.jpg,-0.8328,3.11766,circularblurringext,dino02,2022-04-20_19h53.00.487,ratings,2022.1.1,Win32,59.95203837
-0.028089888,2.957,-1.376404494,3.866,0,222,222,423,1,692_e3e3bf88684fbbcdb9849a4147f9e2fcd39b0f083554a829aca4e9fa_blur.jpg,-0.44522,3.135888,blurring,dino02,2022-04-20_19h53.00.487,ratings,2022.1.1,Win32,59.95203837
-1.507490637,6.209,1.011235955,8.154,0,223,223,273,1,434_ba36d91204d7e578001f6a545d7501e65d209554def5a3c8b7583825_blur.jpg,-3.523808,1.428572,blurring,dino02,2022-04-20_19h53.00.487,ratings,2022.1.1,Win32,59.95203837
0.74906367,4.376,-0.290262172,6.842,0,224,224,177,1,368_6507b94d7d0199f14efd3706db30c9c44b96085f84e9cc7792e3e0ae_blur.jpg,1.959544,0.400336,blurring,dino02,2022-04-20_19h53.00.487,ratings,2022.1.1,Win32,59.95203837
-0.262172285,5.378,-1.413857678,12.237,0,225,225,595,1,1239_cee00457f4cfb76a407b12fd5ad714d440a4614c1e5467ee16caf618_bw.jpg,-0.03174604,0.190476,blackwhite,dino02,2022-04-20_19h53.00.487,ratings,2022.1.1,Win32,59.95203837
0.880149813,2.455,0.964419476,3.715,0,226,226,50,1,112_b6a4ce721c2e42943d7d8b168751d74cd2f372b1cd4fed5a4404faec_edges.jpg,2.107036,0.505688,edges,dino02,2022-04-20_19h53.00.487,ratings,2022.1.1,Win32,59.95203837
-0.852059925,3.278,-2.462546816,5.976,0,227,227,205,1,381_5935a9f9796adce2f1539af6c75bcdc0c80d847a2ce9b77cf59b7672_bw.jpg,-1.327432,-0.442476,blackwhite,dino02,2022-04-20_19h53.00.487,ratings,2022.1.1,Win32,59.95203837
0.374531835,3.424,0.140449438,4.09,0,228,228,117,1,332_4d584229bdae2e1782f77f0e953e528f13c3dfa79b4b94736c0310fa_blur.jpg,3.157348,0.483092,blurring,dino02,2022-04-20_19h53.00.487,ratings,2022.1.1,Win32,59.95203837
0.215355805,6.079,-1.357677903,2.53,0,229,229,35,1,60_ad52063167538de24f94d7dfd04808cb94cf8f426c40871d2f126505_circblurext.jpg,2.158732,0.0,circularblurringext,dino02,2022-04-20_19h53.00.487,ratings,2022.1.1,Win32,59.95203837
-0.411985019,3.242,-3.29588015,4.677,0,230,230,95,1,258_d26019382777d2159a974a7654923e71598135ce2cd710cea1f92865_circblurext.jpg,3.497684,-0.61104,circularblurringext,dino02,2022-04-20_19h53.00.487,ratings,2022.1.1,Win32,59.95203837
-0.131086142,8.995,-2.443820225,9.796,0,231,231,327,1,468_8b69b13120daebadd8a4a3166e1419f2404395cba231307a4efa9fde_blur.jpg,2.031744,0.2539684,blurring,dino02,2022-04-20_19h53.00.487,ratings,2022.1.1,Win32,59.95203837
0.337078652,1.84,0.720973783,2.908,0,232,232,509,1,855_66d893451dfd1e7615132071c6c8a82b02dc2b37781cd89400883b26_circblurext.jpg,2.69484,0.2143624,circularblurringext,dino02,2022-04-20_19h53.00.487,ratings,2022.1.1,Win32,59.95203837
-0.411985019,3.108,-1.264044944,6.845,0,233,233,363,1,508_a7a9519cdc7aad6844030f4e6cd96cffd1b9c49b71e20ea52789bda2_blur.jpg,-3.000388,-1.29694,blurring,dino02,2022-04-20_19h53.00.487,ratings,2022.1.1,Win32,59.95203837
0.852059925,5.12,0.898876404,6.778,0,234,234,412,1,687_e3b018945792a574962235c88c553b7c318c75eec2596478e8a7b877_circblurint.jpg,3.63918,-0.42586,circularblurringint,dino02,2022-04-20_19h53.00.487,ratings,2022.1.1,Win32,59.95203837
-1.647940075,4.344,-1.741573034,6,0,235,235,143,1,353_44e285740cb41818482ac93fc5fbd72c18029444a1d7506c9fc053e7_circblurext.jpg,-3.232676,-0.87108,circularblurringext,dino02,2022-04-20_19h53.00.487,ratings,2022.1.1,Win32,59.95203837
0.009363296,2.933,0.308988764,6.598,0,236,236,480,1,759_95e1c46ed9a337414d5c8eada8fa8b9632e18751f5ce6ed587806e91_orig.jpg,2.126984,0.0,original,dino02,2022-04-20_19h53.00.487,ratings,2022.1.1,Win32,59.95203837
1.11423221,2.243,0.992509363,3.241,0,237,237,449,1,709_69c01dcde028a2a1a913f1a2a5026ae1748484f75c89217a040c6791_circblurext.jpg,1.432444,-0.01935732,circularblurringext,dino02,2022-04-20_19h53.00.487,ratings,2022.1.1,Win32,59.95203837
0.383895131,4.794,-0.664794007,5.544,0,238,238,65,1,156_08e8cf8f04630e9213e610580de73f51572d1d589878648700bae4dc_circblurext.jpg,2.222224,0.0,circularblurringext,dino02,2022-04-20_19h53.00.487,ratings,2022.1.1,Win32,59.95203837
1.292134831,1.763,1.11423221,2.491,0,239,239,17,1,39_2fafccaa4dc69045a05845f59c6b3cd2edcf7e0e0c108b24e553afe0_circblurext.jpg,2.022756,0.463548,circularblurringext,dino02,2022-04-20_19h53.00.487,ratings,2022.1.1,Win32,59.95203837
0.393258427,2.38,0.739700375,3.241,0,240,240,265,1,431_ab5a1dbbe9292ac7f74e276cdabcd372e2c1f852ff34bf7cc6646ef8_bw.jpg,3.102584,0.354334,blackwhite,dino02,2022-04-20_19h53.00.487,ratings,2022.1.1,Win32,59.95203837
-0.393258427,10.877,-0.936329588,12.393,0,241,241,226,1,403_57ac47f43882fc031a6067b1a388c0b2cbe8708dcbd2ff1019932eff_circblurint.jpg,-3.333332,-1.396824,circularblurringint,dino02,2022-04-20_19h53.00.487,ratings,2022.1.1,Win32,59.95203837
0.252808989,4.874,0.383895131,5.947,0,242,242,184,1,369_98db62a1bdabfd1bc551180da6658005b461585cd21614633cf76470_circblurint.jpg,2.190476,-0.03174604,circularblurringint,dino02,2022-04-20_19h53.00.487,ratings,2022.1.1,Win32,59.95203837
0.617977528,3.433,-0.702247191,6.788,0,243,243,469,1,741_2b218fb015e3da83db73cacdb52e61e0c2534c1fe255bb1c5c74d47f_bw.jpg,3.140096,0.448584,blackwhite,dino02,2022-04-20_19h53.00.487,ratings,2022.1.1,Win32,59.95203837
0.018726592,4.443,-1.732209738,5.482,0,244,244,64,1,156_08e8cf8f04630e9213e610580de73f51572d1d589878648700bae4dc_circblurint.jpg,2.222224,0.0,circularblurringint,dino02,2022-04-20_19h53.00.487,ratings,2022.1.1,Win32,59.95203837
0.168539326,9.832,-2.940074906,10.817,0,245,245,542,1,1005_b980c0747d20935bc63cc27a9e05ce2ff5bae98f859872ec48edd7f5_edges.jpg,3.428572,-0.476192,edges,dino02,2022-04-20_19h53.00.487,ratings,2022.1.1,Win32,59.95203837
0.646067416,3.307,-2.191011236,4.157,0,246,246,68,1,172_c641c6c56ca6b594b773084e1363c852abdb65f988d7ff802ee503f2_edges.jpg,0.379572,0.01725328,edges,dino02,2022-04-20_19h53.00.487,ratings,2022.1.1,Win32,59.95203837
-0.374531835,4.619,-2.490636704,5.303,0,247,247,87,1,243_beddb302dcb21071d88c8d2cab07002050d36b3001ef28f89389fa56_blur.jpg,-0.3450656,-0.2070392,blurring,dino02,2022-04-20_19h53.00.487,ratings,2022.1.1,Win32,59.95203837
0.046816479,6.434,-1.713483146,7.289,0,248,248,69,1,172_c641c6c56ca6b594b773084e1363c852abdb65f988d7ff802ee503f2_blur.jpg,0.379572,0.01725328,blurring,dino02,2022-04-20_19h53.00.487,ratings,2022.1.1,Win32,59.95203837
-3.13670412,1.405,-2.940074906,2.358,0,249,249,163,1,361_b5541309527dc3c2422f45a95ebb0ed32005e6fe10d0489a1ff1fbdc_bw.jpg,-3.987612,-0.2516452,blackwhite,dino02,2022-04-20_19h53.00.487,ratings,2022.1.1,Win32,59.95203837
-1.70411985,1.941,-2.088014981,3.047,0,250,250,209,1,381_5935a9f9796adce2f1539af6c75bcdc0c80d847a2ce9b77cf59b7672_circblurext.jpg,-1.327432,-0.442476,circularblurringext,dino02,2022-04-20_19h53.00.487,ratings,2022.1.1,Win32,59.95203837
1.11423221,1.943,0.74906367,3.018,0,251,251,482,1,759_95e1c46ed9a337414d5c8eada8fa8b9632e18751f5ce6ed587806e91_edges.jpg,2.126984,0.0,edges,dino02,2022-04-20_19h53.00.487,ratings,2022.1.1,Win32,59.95203837
-2.911985019,5.242,2.031835206,7.078,0,252,252,157,1,358_157f8ac929713531a15b1ecf115e7b659cb90e83d675251e368d165f_bw.jpg,-3.777776,-0.571428,blackwhite,dino02,2022-04-20_19h53.00.487,ratings,2022.1.1,Win32,59.95203837
-0.608614232,5.118,-2.649812734,6.194,0,253,253,450,1,716_2ab64478147184c4df720a52cf621875addc9007cb2967e4a9a88909_orig.jpg,2.428484,0.0,original,dino02,2022-04-20_19h53.00.487,ratings,2022.1.1,Win32,59.95203837
-3.258426966,1.39,2.602996255,4.818,0,254,254,537,1,986_a77edb21e78bc3a6aa7406517824596b3496ad6c657b6befb84cf370_blur.jpg,-3.906316,-0.60496,blurring,dino02,2022-04-20_19h53.00.487,ratings,2022.1.1,Win32,59.95203837
-0.852059925,11.008,-0.945692884,12.421,0,255,255,490,1,818_877aae033c31e3bbca4486321a5307f87cf53c576c546462d3daf194_circblurint.jpg,-1.277584,0.619436,circularblurringint,dino02,2022-04-20_19h53.00.487,ratings,2022.1.1,Win32,59.95203837
0.177902622,1.765,-1.395131086,2.947,0,256,256,457,1,720_483c541c48959a597fcf44320941afaf8b7695105f90d65b5f6b30f2_bw.jpg,2.158732,-0.2539684,blackwhite,dino02,2022-04-20_19h53.00.487,ratings,2022.1.1,Win32,59.95203837
-0.093632959,2.556,-1.189138577,3.491,0,257,257,453,1,716_2ab64478147184c4df720a52cf621875addc9007cb2967e4a9a88909_blur.jpg,2.428484,0.0,blurring,dino02,2022-04-20_19h53.00.487,ratings,2022.1.1,Win32,59.95203837
-1.54494382,2.947,-2.294007491,3.909,0,258,258,312,1,459_46e25de472bb056cb470716d30937415f7344bfc4354d6eb710d8c9f_orig.jpg,0.03174604,0.0,original,dino02,2022-04-20_19h53.00.487,ratings,2022.1.1,Win32,59.95203837
-1.301498127,4.209,-2.191011236,5.461,0,259,259,342,1,494_5c6c3b85a2734a43c24bfe337d42ffcc82b7347227804d01c784cef4_orig.jpg,0.03871468,0.0,original,dino02,2022-04-20_19h53.00.487,ratings,2022.1.1,Win32,59.95203837
-1.001872659,3.128,0.093632959,8.802,0,260,260,325,1,468_8b69b13120daebadd8a4a3166e1419f2404395cba231307a4efa9fde_bw.jpg,2.031744,0.2539684,blackwhite,dino02,2022-04-20_19h53.00.487,ratings,2022.1.1,Win32,59.95203837
0.037453184,11.314,-3.117977528,13.76,0,261,261,91,1,258_d26019382777d2159a974a7654923e71598135ce2cd710cea1f92865_bw.jpg,3.497684,-0.61104,blackwhite,dino02,2022-04-20_19h53.00.487,ratings,2022.1.1,Win32,59.95203837
0.383895131,3.561,-2.294007491,5.143,0,262,262,548,1,1010_06d15f44b979c086561137000ec070ba4cd479856f92840a7850b2bf_edges.jpg,0.189786,-0.189786,edges,dino02,2022-04-20_19h53.00.487,ratings,2022.1.1,Win32,59.95203837
0.655430712,1.792,0.346441948,3.058,0,263,263,427,1,694_7a14b8ab7c564dcb0f628c4de7f6cb54e4c5f6601f774bf167641c37_bw.jpg,1.819588,0.116144,blackwhite,dino02,2022-04-20_19h53.00.487,ratings,2022.1.1,Win32,59.95203837
1.956928839,4.028,1.75093633,5.064,0,264,264,228,1,407_578d31d32e806706dde2563213f130b90e621abfed0e47ecabd85d27_orig.jpg,3.5873,-0.444444,original,dino02,2022-04-20_19h53.00.487,ratings,2022.1.1,Win32,59.95203837
0.421348315,3.105,0.74906367,3.947,0,265,265,155,1,355_00a76f54934d36566dd0e7b091b8aa6a56d8e6b32d349aa578a10b45_circblurext.jpg,2.910052,0.3439152,circularblurringext,dino02,2022-04-20_19h53.00.487,ratings,2022.1.1,Win32,59.95203837
-2.490636704,2.05,-3.211610487,6.719,0,266,266,401,1,683_a004ad18331da968da5debdd15e1447dd7748750af0bc6c57b844200_circblurext.jpg,-2.91956,2.466524,circularblurringext,dino02,2022-04-20_19h53.00.487,ratings,2022.1.1,Win32,59.95203837
-0.140449438,1.934,-1.676029963,7,0,267,267,597,1,1239_cee00457f4cfb76a407b12fd5ad714d440a4614c1e5467ee16caf618_blur.jpg,-0.03174604,0.190476,blurring,dino02,2022-04-20_19h53.00.487,ratings,2022.1.1,Win32,59.95203837
1.526217228,1.928,1.423220974,2.674,0,268,268,123,1,347_27f0e47c2722605b950ccf9fa900f78271e4c3c874064ab5dacac160_blur.jpg,1.838948,0.3097172,blurring,dino02,2022-04-20_19h53.00.487,ratings,2022.1.1,Win32,59.95203837
-0.973782772,3.846,-1.657303371,5.587,0,269,269,105,1,284_cdcbd54fc995081ac95c8b2c37a19cebb341f61a8eb268cee1623492_blur.jpg,-1.015872,2.095236,blurring,dino02,2022-04-20_19h53.00.487,ratings,2022.1.1,Win32,59.95203837
-1.694756554,2.859,-2.312734082,4.076,0,270,270,419,1,692_7d7eaf20e6de8956f0fca7500ace97a8599aa8b605a7d690cdb28724_circblurext.jpg,-2.063492,-1.26984,circularblurringext,dino02,2022-04-20_19h53.00.487,ratings,2022.1.1,Win32,59.95203837
0.308988764,1.865,-1.235955056,2.582,0,271,271,473,1,741_2b218fb015e3da83db73cacdb52e61e0c2534c1fe255bb1c5c74d47f_circblurext.jpg,3.140096,0.448584,circularblurringext,dino02,2022-04-20_19h53.00.487,ratings,2022.1.1,Win32,59.95203837
-3.146067416,1.728,-2.865168539,9.296,0,272,272,135,1,349_8809a67686d34844c915d7700e2ea72ad1c02ae232ae0d3cc0e458d4_blur.jpg,-3.619048,-0.2857144,blurring,dino02,2022-04-20_19h53.00.487,ratings,2022.1.1,Win32,59.95203837
-3.08988764,2.548,-2.949438202,5.413,0,273,273,574,1,1039_d64da8480fc6e94dcdc513237d600570ae0b9fe48795ac6a8b2d29a7_circblurint.jpg,-2.507936,-1.142856,circularblurringint,dino02,2022-04-20_19h53.00.487,ratings,2022.1.1,Win32,59.95203837
-1.095505618,1.99,-0.280898876,4.042,0,274,274,141,1,353_44e285740cb41818482ac93fc5fbd72c18029444a1d7506c9fc053e7_blur.jpg,-3.232676,-0.87108,blurring,dino02,2022-04-20_19h53.00.487,ratings,2022.1.1,Win32,59.95203837
0.290262172,1.54,-1.011235955,2.458,0,275,275,430,1,694_7a14b8ab7c564dcb0f628c4de7f6cb54e4c5f6601f774bf167641c37_circblurint.jpg,1.819588,0.116144,circularblurringint,dino02,2022-04-20_19h53.00.487,ratings,2022.1.1,Win32,59.95203837
-0.374531835,5.835,-2.162921348,6.729,0,276,276,152,1,355_00a76f54934d36566dd0e7b091b8aa6a56d8e6b32d349aa578a10b45_edges.jpg,2.910052,0.3439152,edges,dino02,2022-04-20_19h53.00.487,ratings,2022.1.1,Win32,59.95203837
-1.151685393,2.766,-2.602996255,3.973,0,277,277,374,1,620_9674719009d75dcfeaed7f15932c43e1fd1af5e25d47b8aadd61efe2_edges.jpg,-0.561364,1.142084,edges,dino02,2022-04-20_19h53.00.487,ratings,2022.1.1,Win32,59.95203837
0.458801498,2.397,0.196629213,3.445,0,278,278,198,1,380_34772591c787182a37724027eac6948ebc9d4064f6a601d23b923b8e_orig.jpg,2.222224,-0.063492,original,dino02,2022-04-20_19h53.00.487,ratings,2022.1.1,Win32,59.95203837
-0.777153558,5.051,-2.18164794,6.316,0,279,279,306,1,455_34a7d8167619d110206c369e3f7dce8a3f99db763a9d8e2b956501d3_orig.jpg,-2.526412,-0.3827896,original,dino02,2022-04-20_19h53.00.487,ratings,2022.1.1,Win32,59.95203837
0.720973783,1.43,0.720973783,3.779,0,280,280,120,1,347_27f0e47c2722605b950ccf9fa900f78271e4c3c874064ab5dacac160_orig.jpg,1.838948,0.3097172,original,dino02,2022-04-20_19h53.00.487,ratings,2022.1.1,Win32,59.95203837
1.329588015,2.075,1.245318352,2.841,0,281,281,353,1,498_305b74cdc4784d9d25e72724302e5402def70177ea31ae7e25fab66b_circblurext.jpg,3.04762,-0.444444,circularblurringext,dino02,2022-04-20_19h53.00.487,ratings,2022.1.1,Win32,59.95203837
-1.760299625,4.66,-2.387640449,5.594,0,282,282,127,1,349_18d92ef5c21ca70a3dd237aad251594e1688bbe01d8cff37b89c46b8_bw.jpg,-2.74874,-1.258228,blackwhite,dino02,2022-04-20_19h53.00.487,ratings,2022.1.1,Win32,59.95203837
0.861423221,1.543,0.74906367,2.276,0,283,283,41,1,82_43f4d5aec7c2e5bd495473f6708a0f2d47c9fe34e1fe9436646cb036_circblurext.jpg,2.022756,0.505688,circularblurringext,dino02,2022-04-20_19h53.00.487,ratings,2022.1.1,Win32,59.95203837
-2.97752809,11.3,2.490636704,14.002,0,284,284,496,1,824_b1d91cc824ce0d3d383d3147da88d3d6dbaf6be918bab79e3ec8f501_circblurint.jpg,-3.645176,-1.432784,circularblurringint,dino02,2022-04-20_19h53.00.487,ratings,2022.1.1,Win32,59.95203837
-1.161048689,1.714,-0.243445693,3.123,0,285,285,282,1,440_dc6413e2b65369ee2587f4d85621742fe4ca87392d0a8ad2ea7d94e3_orig.jpg,-3.016216,1.69404,original,dino02,2022-04-20_19h53.00.487,ratings,2022.1.1,Win32,59.95203837
-2.359550562,5.829,-2.65917603,3.862,0,286,286,241,1,411_adfd0d5782129756321ff671d0cfb712528504c66c863df11aabd1e7_bw.jpg,-3.392332,-1.369576,blackwhite,dino02,2022-04-20_19h53.00.487,ratings,2022.1.1,Win32,59.95203837
-0.018726592,3.632,-1.245318352,4.861,0,287,287,599,1,1239_cee00457f4cfb76a407b12fd5ad714d440a4614c1e5467ee16caf618_circblurext.jpg,-0.03174604,0.190476,circularblurringext,dino02,2022-04-20_19h53.00.487,ratings,2022.1.1,Win32,59.95203837
-0.205992509,3.595,-2.518726592,4.425,0,288,288,288,1,442_7449d79dae5d652af9b2429872cabdef938646ba024db2f431b3b28d_orig.jpg,1.619048,0.126984,original,dino02,2022-04-20_19h53.00.487,ratings,2022.1.1,Win32,59.95203837
-0.290262172,1.957,-2.546816479,3.075,0,289,289,442,1,700_59cb565f134f1afd066d7b6d936c6511b7cb76de0e9cbb5ce15124ad_circblurint.jpg,0.0,0.0,circularblurringint,dino02,2022-04-20_19h53.00.487,ratings,2022.1.1,Win32,59.95203837
-1.413857678,8.43,-2.546816479,9.615,0,290,290,248,1,414_0187bdf7007109b487865b6a9d388997a6817acf052a6a7cdd5b39d9_edges.jpg,-2.786708,-1.133056,edges,dino02,2022-04-20_19h53.00.487,ratings,2022.1.1,Win32,59.95203837
-0.028089888,5.094,-2.415730337,6.068,0,291,291,416,1,692_7d7eaf20e6de8956f0fca7500ace97a8599aa8b605a7d690cdb28724_edges.jpg,-2.063492,-1.26984,edges,dino02,2022-04-20_19h53.00.487,ratings,2022.1.1,Win32,59.95203837
0.037453184,8.481,1.882022472,9.699,0,292,292,587,1,1225_59c67a821456f2cce3e5acf66d7f00076bd02caffc984c1eb0df794e_circblurext.jpg,-0.444444,3.809524,circularblurringext,dino02,2022-04-20_19h53.00.487,ratings,2022.1.1,Win32,59.95203837
0.177902622,3.698,-0.917602996,5.878,0,293,293,128,1,349_18d92ef5c21ca70a3dd237aad251594e1688bbe01d8cff37b89c46b8_edges.jpg,-2.74874,-1.258228,edges,dino02,2022-04-20_19h53.00.487,ratings,2022.1.1,Win32,59.95203837
-0.234082397,3.832,0.43071161,6.734,0,294,294,421,1,692_e3e3bf88684fbbcdb9849a4147f9e2fcd39b0f083554a829aca4e9fa_bw.jpg,-0.44522,3.135888,blackwhite,dino02,2022-04-20_19h53.00.487,ratings,2022.1.1,Win32,59.95203837
-0.102996255,1.679,-0.355805243,3.975,0,295,295,76,1,236_f645730e1eb06155418c9a571329cc7fa320654fcaaedf1048b5cc11_circblurint.jpg,2.253968,0.0,circularblurringint,dino02,2022-04-20_19h53.00.487,ratings,2022.1.1,Win32,59.95203837
-0.243445693,2.572,-1.825842697,4.476,0,296,296,308,1,455_34a7d8167619d110206c369e3f7dce8a3f99db763a9d8e2b956501d3_edges.jpg,-2.526412,-0.3827896,edges,dino02,2022-04-20_19h53.00.487,ratings,2022.1.1,Win32,59.95203837
-0.861423221,2.713,-2.537453184,3.798,0,297,297,511,1,858_2f6539ee36aba48c38dc716d4f7c3ae93367d6ddf23ab41745d4172c_bw.jpg,0.0623832,0.176752,blackwhite,dino02,2022-04-20_19h53.00.487,ratings,2022.1.1,Win32,59.95203837
0.374531835,6.714,-2.808988764,7.817,0,298,298,6,1,28_6318543b74eeb646a1735477ebc023fdc9ac3849bc0db1957c272a26_orig.jpg,2.811244,-0.74584,original,dino02,2022-04-20_19h53.00.487,ratings,2022.1.1,Win32,59.95203837
2.237827715,1.541,2.097378277,2.333,0,299,299,408,1,687_e3b018945792a574962235c88c553b7c318c75eec2596478e8a7b877_orig.jpg,3.63918,-0.42586,original,dino02,2022-04-20_19h53.00.487,ratings,2022.1.1,Win32,59.95203837
-2.743445693,1.741,-2.780898876,4.177,0,300,300,166,1,361_b5541309527dc3c2422f45a95ebb0ed32005e6fe10d0489a1ff1fbdc_circblurint.jpg,-3.987612,-0.2516452,circularblurringint,dino02,2022-04-20_19h53.00.487,ratings,2022.1.1,Win32,59.95203837
-0.149812734,3.712,-2.415730337,4.71,0,301,301,213,1,394_8e3a0cb945144d53bd1ace04b6256237ed9dcbbd9cb83f8a4886b0e6_blur.jpg,-2.593884,2.651956,blurring,dino02,2022-04-20_19h53.00.487,ratings,2022.1.1,Win32,59.95203837
0.711610487,103.974,0.43071161,104.607,0,302,302,471,1,741_2b218fb015e3da83db73cacdb52e61e0c2534c1fe255bb1c5c74d47f_blur.jpg,3.140096,0.448584,blurring,dino02,2022-04-20_19h53.00.487,ratings,2022.1.1,Win32,59.95203837
-0.028089888,2.075,-0.15917603,3.205,0,303,303,45,1,92_5d20d78a8e57e628c6930676473a4e0a485e715841efd6286c660020_blur.jpg,2.126984,0.0,blurring,dino02,2022-04-20_19h53.00.487,ratings,2022.1.1,Win32,59.95203837
0.449438202,2.408,-0.917602996,3.119,0,304,304,149,1,354_e46c3ec6fb00773f64f2bcd212385f253c389808fe724b7cf8611051_circblurext.jpg,2.018292,0.0,circularblurringext,dino02,2022-04-20_19h53.00.487,ratings,2022.1.1,Win32,59.95203837
-0.458801498,2.29,-1.479400749,4.351,0,305,305,588,1,1228_557412d34d6a70b7c5d222e030aa485b351a4574e8ba1a3112d1d13d_orig.jpg,2.137444,0.703464,original,dino02,2022-04-20_19h53.00.487,ratings,2022.1.1,Win32,59.95203837
-1.676029963,1.644,0.533707865,3.033,0,306,306,235,1,410_9633c4ff6e8888fcfca59a60ca86e9606d3e0736500a254101bdf295_bw.jpg,-0.3677892,2.981028,blackwhite,dino02,2022-04-20_19h53.00.487,ratings,2022.1.1,Win32,59.95203837
-1.217228464,2.213,0.870786517,3.113,0,307,307,387,1,646_577760d718dab44c6f04d77408c5644a120065ce07a9503957d0850a_blur.jpg,-2.690668,2.61324,blurring,dino02,2022-04-20_19h53.00.487,ratings,2022.1.1,Win32,59.95203837
0.973782772,5.271,1.151685393,6.055,0,308,308,463,1,736_bb85db1bcda8eb34299aa5791ac65a0a7c343266eb2d6e6e328ec0e1_bw.jpg,3.650792,-0.03174604,blackwhite,dino02,2022-04-20_19h53.00.487,ratings,2022.1.1,Win32,59.95203837
2.050561798,1.285,1.938202247,5.118,0,309,309,16,1,39_2fafccaa4dc69045a05845f59c6b3cd2edcf7e0e0c108b24e553afe0_circblurint.jpg,2.022756,0.463548,circularblurringint,dino02,2022-04-20_19h53.00.487,ratings,2022.1.1,Win32,59.95203837
1.928838951,1.559,2.088014981,2.241,0,310,310,124,1,347_27f0e47c2722605b950ccf9fa900f78271e4c3c874064ab5dacac160_circblurint.jpg,1.838948,0.3097172,circularblurringint,dino02,2022-04-20_19h53.00.487,ratings,2022.1.1,Win32,59.95203837
-2.434456929,1.522,1.91011236,2.324,0,311,311,400,1,683_a004ad18331da968da5debdd15e1447dd7748750af0bc6c57b844200_circblurint.jpg,-2.91956,2.466524,circularblurringint,dino02,2022-04-20_19h53.00.487,ratings,2022.1.1,Win32,59.95203837
-1.151685393,2.317,-1.338951311,3.929,0,312,312,259,1,416_8a1f874e0057d67a4e6955865ba88b2d8ce2c8b4469589307687a723_bw.jpg,-1.753336,3.088264,blackwhite,dino02,2022-04-20_19h53.00.487,ratings,2022.1.1,Win32,59.95203837
0.898876404,4.151,1.376404494,5.013,0,313,313,585,1,1225_59c67a821456f2cce3e5acf66d7f00076bd02caffc984c1eb0df794e_blur.jpg,-0.444444,3.809524,blurring,dino02,2022-04-20_19h53.00.487,ratings,2022.1.1,Win32,59.95203837
0.084269663,2.475,-0.365168539,4.525,0,314,314,75,1,236_f645730e1eb06155418c9a571329cc7fa320654fcaaedf1048b5cc11_blur.jpg,2.253968,0.0,blurring,dino02,2022-04-20_19h53.00.487,ratings,2022.1.1,Win32,59.95203837
0.346441948,1.751,-1.132958801,3.443,0,315,315,300,1,453_54f106fd1d4b65fa4aa347407127fc30d49f791e81aee3a0bbe44489_orig.jpg,2.222224,0.0,original,dino02,2022-04-20_19h53.00.487,ratings,2022.1.1,Win32,59.95203837
0.355805243,2.092,-1.06741573,4.017,0,316,316,147,1,354_e46c3ec6fb00773f64f2bcd212385f253c389808fe724b7cf8611051_blur.jpg,2.018292,0.0,blurring,dino02,2022-04-20_19h53.00.487,ratings,2022.1.1,Win32,59.95203837
0.43071161,5.61,-0.028089888,9.196,0,317,317,460,1,720_483c541c48959a597fcf44320941afaf8b7695105f90d65b5f6b30f2_circblurint.jpg,2.158732,-0.2539684,circularblurringint,dino02,2022-04-20_19h53.00.487,ratings,2022.1.1,Win32,59.95203837
-0.936329588,1.977,-1.835205993,3.425,0,318,318,236,1,410_9633c4ff6e8888fcfca59a60ca86e9606d3e0736500a254101bdf295_edges.jpg,-0.3677892,2.981028,edges,dino02,2022-04-20_19h53.00.487,ratings,2022.1.1,Win32,59.95203837
-1.86329588,1.897,-2.490636704,2.594,0,319,319,414,1,692_7d7eaf20e6de8956f0fca7500ace97a8599aa8b605a7d690cdb28724_orig.jpg,-2.063492,-1.26984,original,dino02,2022-04-20_19h53.00.487,ratings,2022.1.1,Win32,59.95203837
-2.565543071,2.247,-2.752808989,2.798,0,320,320,242,1,411_adfd0d5782129756321ff671d0cfb712528504c66c863df11aabd1e7_edges.jpg,-3.392332,-1.369576,edges,dino02,2022-04-20_19h53.00.487,ratings,2022.1.1,Win32,59.95203837
-0.383895131,3.441,-0.777153558,7.597,0,321,321,422,1,692_e3e3bf88684fbbcdb9849a4147f9e2fcd39b0f083554a829aca4e9fa_edges.jpg,-0.44522,3.135888,edges,dino02,2022-04-20_19h53.00.487,ratings,2022.1.1,Win32,59.95203837
-0.79588015,4.277,-0.74906367,11.808,0,322,322,591,1,1228_557412d34d6a70b7c5d222e030aa485b351a4574e8ba1a3112d1d13d_blur.jpg,2.137444,0.703464,blurring,dino02,2022-04-20_19h53.00.487,ratings,2022.1.1,Win32,59.95203837
0.149812734,2.406,-1.666666667,3.474,0,323,323,578,1,1061_665178b9cb0bc869cc2e2b68def4838db04e66f9531098fb75875a09_edges.jpg,0.3492064,-0.3174604,edges,dino02,2022-04-20_19h53.00.487,ratings,2022.1.1,Win32,59.95203837
0.440074906,2.109,-2.668539326,2.777,0,324,324,71,1,172_c641c6c56ca6b594b773084e1363c852abdb65f988d7ff802ee503f2_circblurext.jpg,0.379572,0.01725328,circularblurringext,dino02,2022-04-20_19h53.00.487,ratings,2022.1.1,Win32,59.95203837
-0.393258427,2.99,-2.02247191,3.83,0,325,325,365,1,508_a7a9519cdc7aad6844030f4e6cd96cffd1b9c49b71e20ea52789bda2_circblurext.jpg,-3.000388,-1.29694,circularblurringext,dino02,2022-04-20_19h53.00.487,ratings,2022.1.1,Win32,59.95203837
-0.252808989,2.792,-1.966292135,3.527,0,326,326,556,1,1014_a5c212ca979d482cf94c2db7697aba75620391a64b030ab7ad2bbecf_circblurint.jpg,-3.174604,-1.374372,circularblurringint,dino02,2022-04-20_19h53.00.487,ratings,2022.1.1,Win32,59.95203837
-1.610486891,2.875,0.449438202,4.659,0,327,327,433,1,694_f80f33613b268beffd6c044537cf3b44a84683d6e889bc37b8e9c34b_bw.jpg,-0.3785616,3.34728,blackwhite,dino02,2022-04-20_19h53.00.487,ratings,2022.1.1,Win32,59.95203837
-0.262172285,2.151,-0.299625468,5.161,0,328,328,257,1,416_5eb54976bb41ce2a6d129ef985f792e716f010fb9b69b15f50f5d2db_circblurext.jpg,-2.58766,2.602972,circularblurringext,dino02,2022-04-20_19h53.00.487,ratings,2022.1.1,Win32,59.95203837
0.496254682,1.973,-1.198501873,2.981,0,329,329,101,1,267_792043debad81ce271cec5b3c3bd9d264efc13f362bec9c7a3f72fe7_circblurext.jpg,1.980616,0.2107036,circularblurringext,dino02,2022-04-20_19h53.00.487,ratings,2022.1.1,Win32,59.95203837
0.945692884,1.914,0.47752809,2.915,0,330,330,524,1,877_cab3efed0c9ff4552037df6c1ea4ea9713f915c94592a14dbf2799da_edges.jpg,3.174604,0.3174604,edges,dino02,2022-04-20_19h53.00.487,ratings,2022.1.1,Win32,59.95203837
0.355805243,3.75,-2.050561798,5.279,0,331,331,455,1,716_2ab64478147184c4df720a52cf621875addc9007cb2967e4a9a88909_circblurext.jpg,2.428484,0.0,circularblurringext,dino02,2022-04-20_19h53.00.487,ratings,2022.1.1,Win32,59.95203837
-2.968164794,1.466,-3.071161049,2.214,0,332,332,250,1,414_0187bdf7007109b487865b6a9d388997a6817acf052a6a7cdd5b39d9_circblurint.jpg,-2.786708,-1.133056,circularblurringint,dino02,2022-04-20_19h53.00.487,ratings,2022.1.1,Win32,59.95203837
1.301498127,1.761,1.451310861,2.542,0,333,333,38,1,82_43f4d5aec7c2e5bd495473f6708a0f2d47c9fe34e1fe9436646cb036_edges.jpg,2.022756,0.505688,edges,dino02,2022-04-20_19h53.00.487,ratings,2022.1.1,Win32,59.95203837
-3.501872659,1.61,2.237827715,2.743,0,334,334,160,1,358_157f8ac929713531a15b1ecf115e7b659cb90e83d675251e368d165f_circblurint.jpg,-3.777776,-0.571428,circularblurringint,dino02,2022-04-20_19h53.00.487,ratings,2022.1.1,Win32,59.95203837
1.657303371,1.446,1.554307116,2.091,0,335,335,189,1,369_c99797771115d7627d4abe3415f814497288f91a7be1a04c17c776b9_blur.jpg,3.619824,-0.174216,blurring,dino02,2022-04-20_19h53.00.487,ratings,2022.1.1,Win32,59.95203837
1.22659176,2.192,1.095505618,3.024,0,336,336,201,1,380_34772591c787182a37724027eac6948ebc9d4064f6a601d23b923b8e_blur.jpg,2.222224,-0.063492,blurring,dino02,2022-04-20_19h53.00.487,ratings,2022.1.1,Win32,59.95203837
-0.196629213,4.052,-1.292134831,6.269,0,337,337,424,1,692_e3e3bf88684fbbcdb9849a4147f9e2fcd39b0f083554a829aca4e9fa_circblurint.jpg,-0.44522,3.135888,circularblurringint,dino02,2022-04-20_19h53.00.487,ratings,2022.1.1,Win32,59.95203837
-0.674157303,5.158,-1.853932584,5.96,0,338,338,440,1,700_59cb565f134f1afd066d7b6d936c6511b7cb76de0e9cbb5ce15124ad_edges.jpg,0.0,0.0,edges,dino02,2022-04-20_19h53.00.487,ratings,2022.1.1,Win32,59.95203837
-2.855805243,5.861,-2.743445693,7.262,0,339,339,532,1,915_dc9fd40a3b5d64a180833a7bac86e7556c24f681f473fe255e41f936_circblurint.jpg,-3.09294,-0.918696,circularblurringint,dino02,2022-04-20_19h53.00.487,ratings,2022.1.1,Win32,59.95203837
1.507490637,2.729,0.655430712,4.17,0,340,340,191,1,369_c99797771115d7627d4abe3415f814497288f91a7be1a04c17c776b9_circblurext.jpg,3.619824,-0.174216,circularblurringext,dino02,2022-04-20_19h53.00.487,ratings,2022.1.1,Win32,59.95203837
-3.426966292,1.698,2.172284644,7.196,0,341,341,538,1,986_a77edb21e78bc3a6aa7406517824596b3496ad6c657b6befb84cf370_circblurint.jpg,-3.906316,-0.60496,circularblurringint,dino02,2022-04-20_19h53.00.487,ratings,2022.1.1,Win32,59.95203837
-1.797752809,1.81,-2.275280899,2.642,0,342,342,386,1,646_577760d718dab44c6f04d77408c5644a120065ce07a9503957d0850a_edges.jpg,-2.690668,2.61324,edges,dino02,2022-04-20_19h53.00.487,ratings,2022.1.1,Win32,59.95203837
0.599250936,5.897,-0.664794007,10.055,0,343,343,470,1,741_2b218fb015e3da83db73cacdb52e61e0c2534c1fe255bb1c5c74d47f_edges.jpg,3.140096,0.448584,edges,dino02,2022-04-20_19h53.00.487,ratings,2022.1.1,Win32,59.95203837
0.168539326,2.276,-2.162921348,3.775,0,344,344,96,1,267_792043debad81ce271cec5b3c3bd9d264efc13f362bec9c7a3f72fe7_orig.jpg,1.980616,0.2107036,original,dino02,2022-04-20_19h53.00.487,ratings,2022.1.1,Win32,59.95203837
-0.271535581,1.626,-2.219101124,3.98,0,345,345,514,1,858_2f6539ee36aba48c38dc716d4f7c3ae93367d6ddf23ab41745d4172c_circblurint.jpg,0.0623832,0.176752,circularblurringint,dino02,2022-04-20_19h53.00.487,ratings,2022.1.1,Win32,59.95203837
-0.449438202,2.318,-1.853932584,3.46,0,346,346,515,1,858_2f6539ee36aba48c38dc716d4f7c3ae93367d6ddf23ab41745d4172c_circblurext.jpg,0.0623832,0.176752,circularblurringext,dino02,2022-04-20_19h53.00.487,ratings,2022.1.1,Win32,59.95203837
-0.852059925,4.488,-2.780898876,6.648,0,347,347,85,1,243_beddb302dcb21071d88c8d2cab07002050d36b3001ef28f89389fa56_bw.jpg,-0.3450656,-0.2070392,blackwhite,dino02,2022-04-20_19h53.00.487,ratings,2022.1.1,Win32,59.95203837
-1.179775281,1.556,-2.705992509,2.162,0,348,348,343,1,494_5c6c3b85a2734a43c24bfe337d42ffcc82b7347227804d01c784cef4_bw.jpg,0.03871468,0.0,blackwhite,dino02,2022-04-20_19h53.00.487,ratings,2022.1.1,Win32,59.95203837
-0.271535581,1.79,-0.730337079,3.325,0,349,349,287,1,440_dc6413e2b65369ee2587f4d85621742fe4ca87392d0a8ad2ea7d94e3_circblurext.jpg,-3.016216,1.69404,circularblurringext,dino02,2022-04-20_19h53.00.487,ratings,2022.1.1,Win32,59.95203837
0.777153558,1.282,0.964419476,2.267,0,350,350,232,1,407_578d31d32e806706dde2563213f130b90e621abfed0e47ecabd85d27_circblurint.jpg,3.5873,-0.444444,circularblurringint,dino02,2022-04-20_19h53.00.487,ratings,2022.1.1,Win32,59.95203837
0.234082397,2.516,-1.919475655,3.3,0,351,351,10,1,28_6318543b74eeb646a1735477ebc023fdc9ac3849bc0db1957c272a26_circblurint.jpg,2.811244,-0.74584,circularblurringint,dino02,2022-04-20_19h53.00.487,ratings,2022.1.1,Win32,59.95203837
-0.702247191,4.276,-1.638576779,5.819,0,352,352,596,1,1239_cee00457f4cfb76a407b12fd5ad714d440a4614c1e5467ee16caf618_edges.jpg,-0.03174604,0.190476,edges,dino02,2022-04-20_19h53.00.487,ratings,2022.1.1,Win32,59.95203837
0.973782772,1.584,0.702247191,2.328,0,353,353,527,1,877_cab3efed0c9ff4552037df6c1ea4ea9713f915c94592a14dbf2799da_circblurext.jpg,3.174604,0.3174604,circularblurringext,dino02,2022-04-20_19h53.00.487,ratings,2022.1.1,Win32,59.95203837
0.823970037,1.443,1.170411985,2.208,0,354,354,233,1,407_578d31d32e806706dde2563213f130b90e621abfed0e47ecabd85d27_circblurext.jpg,3.5873,-0.444444,circularblurringext,dino02,2022-04-20_19h53.00.487,ratings,2022.1.1,Win32,59.95203837
0.786516854,3.477,-0.805243446,4.363,0,355,355,431,1,694_7a14b8ab7c564dcb0f628c4de7f6cb54e4c5f6601f774bf167641c37_circblurext.jpg,1.819588,0.116144,circularblurringext,dino02,2022-04-20_19h53.00.487,ratings,2022.1.1,Win32,59.95203837
0.992509363,6.68,1.348314607,7.535,0,356,356,276,1,440_9bf7e8609729bf888835168834da6c3ff30b75d0d4f36e2ee6918bcc_orig.jpg,-2.284164,2.710028,original,dino02,2022-04-20_19h53.00.487,ratings,2022.1.1,Win32,59.95203837
-0.926966292,3.592,-2.715355805,23.595,0,357,357,307,1,455_34a7d8167619d110206c369e3f7dce8a3f99db763a9d8e2b956501d3_bw.jpg,-2.526412,-0.3827896,blackwhite,dino02,2022-04-20_19h53.00.487,ratings,2022.1.1,Win32,59.95203837
-0.926966292,1.539,-2.574906367,2.23,0,358,358,208,1,381_5935a9f9796adce2f1539af6c75bcdc0c80d847a2ce9b77cf59b7672_circblurint.jpg,-1.327432,-0.442476,circularblurringint,dino02,2022-04-20_19h53.00.487,ratings,2022.1.1,Win32,59.95203837
0.936329588,1.53,0.543071161,2.159,0,359,359,516,1,860_05c4e22518a30d3d2add458a8fc6488f87b9b02dd8e385ded939f025_orig.jpg,1.955092,0.3097172,original,dino02,2022-04-20_19h53.00.487,ratings,2022.1.1,Win32,59.95203837
0.543071161,1.833,-0.234082397,2.777,0,360,360,227,1,403_57ac47f43882fc031a6067b1a388c0b2cbe8708dcbd2ff1019932eff_circblurext.jpg,-3.333332,-1.396824,circularblurringext,dino02,2022-04-20_19h53.00.487,ratings,2022.1.1,Win32,59.95203837
0.028089888,13.619,-2.228464419,14.536,0,361,361,290,1,442_7449d79dae5d652af9b2429872cabdef938646ba024db2f431b3b28d_edges.jpg,1.619048,0.126984,edges,dino02,2022-04-20_19h53.00.487,ratings,2022.1.1,Win32,59.95203837
-1.713483146,1.195,-2.191011236,1.93,0,362,362,84,1,243_beddb302dcb21071d88c8d2cab07002050d36b3001ef28f89389fa56_orig.jpg,-0.3450656,-0.2070392,original,dino02,2022-04-20_19h53.00.487,ratings,2022.1.1,Win32,59.95203837
-3.426966292,1.231,-3.501872659,1.86,0,363,363,529,1,915_dc9fd40a3b5d64a180833a7bac86e7556c24f681f473fe255e41f936_bw.jpg,-3.09294,-0.918696,blackwhite,dino02,2022-04-20_19h53.00.487,ratings,2022.1.1,Win32,59.95203837
-1.86329588,1.79,-2.34082397,2.461,0,364,364,552,1,1014_a5c212ca979d482cf94c2db7697aba75620391a64b030ab7ad2bbecf_orig.jpg,-3.174604,-1.374372,original,dino02,2022-04-20_19h53.00.487,ratings,2022.1.1,Win32,59.95203837
-0.468164794,2.239,-1.807116105,3.643,0,365,365,291,1,442_7449d79dae5d652af9b2429872cabdef938646ba024db2f431b3b28d_blur.jpg,1.619048,0.126984,blurring,dino02,2022-04-20_19h53.00.487,ratings,2022.1.1,Win32,59.95203837
0.056179775,2.934,-2.050561798,3.793,0,366,366,57,1,137_0e6a04243c0a42a5e2528a2d181255ca2a4b7bd6e7978c5c2059c69f_blur.jpg,-0.95238,2.095236,blurring,dino02,2022-04-20_19h53.00.487,ratings,2022.1.1,Win32,59.95203837
-2.041198502,3.51,-2.312734082,4.995,0,367,367,142,1,353_44e285740cb41818482ac93fc5fbd72c18029444a1d7506c9fc053e7_circblurint.jpg,-3.232676,-0.87108,circularblurringint,dino02,2022-04-20_19h53.00.487,ratings,2022.1.1,Win32,59.95203837
0.767790262,2.542,-1.048689139,3.509,0,368,368,458,1,720_483c541c48959a597fcf44320941afaf8b7695105f90d65b5f6b30f2_edges.jpg,2.158732,-0.2539684,edges,dino02,2022-04-20_19h53.00.487,ratings,2022.1.1,Win32,59.95203837
-1.460674157,6.378,-1.966292135,8.797,0,369,369,364,1,508_a7a9519cdc7aad6844030f4e6cd96cffd1b9c49b71e20ea52789bda2_circblurint.jpg,-3.000388,-1.29694,circularblurringint,dino02,2022-04-20_19h53.00.487,ratings,2022.1.1,Win32,59.95203837
0.739700375,1.683,0.936329588,2.784,0,370,370,174,1,368_6507b94d7d0199f14efd3706db30c9c44b96085f84e9cc7792e3e0ae_orig.jpg,1.959544,0.400336,original,dino02,2022-04-20_19h53.00.487,ratings,2022.1.1,Win32,59.95203837
0.880149813,1.548,0.608614232,2.578,0,371,371,466,1,736_bb85db1bcda8eb34299aa5791ac65a0a7c343266eb2d6e6e328ec0e1_circblurint.jpg,3.650792,-0.03174604,circularblurringint,dino02,2022-04-20_19h53.00.487,ratings,2022.1.1,Win32,59.95203837
-3.13670412,3.351,1.807116105,4.345,0,372,372,156,1,358_157f8ac929713531a15b1ecf115e7b659cb90e83d675251e368d165f_orig.jpg,-3.777776,-0.571428,original,dino02,2022-04-20_19h53.00.487,ratings,2022.1.1,Win32,59.95203837
-2.874531835,1.712,-2.752808989,2.508,0,373,373,332,1,482_a1cd28915c5044c018195ab0fff10dcc95e385246b045a7cd4463ff7_edges.jpg,-3.361852,-1.555612,edges,dino02,2022-04-20_19h53.00.487,ratings,2022.1.1,Win32,59.95203837
-2.481273408,1.69,-2.81835206,2.209,0,374,374,418,1,692_7d7eaf20e6de8956f0fca7500ace97a8599aa8b605a7d690cdb28724_circblurint.jpg,-2.063492,-1.26984,circularblurringint,dino02,2022-04-20_19h53.00.487,ratings,2022.1.1,Win32,59.95203837
-1.891385768,28.603,1.657303371,29.824,0,375,375,406,1,686_6745b57686ad5d1bd6cf3e7ed5bc0243a154f8939e88e30321dfcfdb_circblurint.jpg,-1.523808,3.650792,circularblurringint,dino02,2022-04-20_19h53.00.487,ratings,2022.1.1,Win32,59.95203837
0.102996255,2.578,-1.441947566,3.941,0,376,376,20,1,48_2cc936b2483ab2944c9158e163342b874ef6c1492fd8fca08c0e096e_edges.jpg,-1.264224,-0.779604,edges,dino02,2022-04-20_19h53.00.487,ratings,2022.1.1,Win32,59.95203837
-1.27340824,2.358,1.039325843,3.233,0,377,377,437,1,694_f80f33613b268beffd6c044537cf3b44a84683d6e889bc37b8e9c34b_circblurext.jpg,-0.3785616,3.34728,circularblurringext,dino02,2022-04-20_19h53.00.487,ratings,2022.1.1,Win32,59.95203837
0.383895131,4.845,-0.880149813,5.727,0,378,378,351,1,498_305b74cdc4784d9d25e72724302e5402def70177ea31ae7e25fab66b_blur.jpg,3.04762,-0.444444,blurring,dino02,2022-04-20_19h53.00.487,ratings,2022.1.1,Win32,59.95203837
0.346441948,1.89,-2.93071161,3.825,0,379,379,90,1,258_d26019382777d2159a974a7654923e71598135ce2cd710cea1f92865_orig.jpg,3.497684,-0.61104,original,dino02,2022-04-20_19h53.00.487,ratings,2022.1.1,Win32,59.95203837
0.262172285,1.573,-2.837078652,2.23,0,380,380,23,1,48_2cc936b2483ab2944c9158e163342b874ef6c1492fd8fca08c0e096e_circblurext.jpg,-1.264224,-0.779604,circularblurringext,dino02,2022-04-20_19h53.00.487,ratings,2022.1.1,Win32,59.95203837
0.31835206,1.39,-2.677902622,2.112,0,381,381,217,1,396_208259ea431d47bb7f3946213eb099834eb119756ce304ad473d4d9f_bw.jpg,2.857144,-0.3809524,blackwhite,dino02,2022-04-20_19h53.00.487,ratings,2022.1.1,Win32,59.95203837
-0.131086142,2.294,-2.97752809,3.48,0,382,382,443,1,700_59cb565f134f1afd066d7b6d936c6511b7cb76de0e9cbb5ce15124ad_circblurext.jpg,0.0,0.0,circularblurringext,dino02,2022-04-20_19h53.00.487,ratings,2022.1.1,Win32,59.95203837
-0.664794007,1.823,-2.265917603,3.308,0,383,383,489,1,818_877aae033c31e3bbca4486321a5307f87cf53c576c546462d3daf194_blur.jpg,-1.277584,0.619436,blurring,dino02,2022-04-20_19h53.00.487,ratings,2022.1.1,Win32,59.95203837
-2.687265918,1.475,-2.65917603,2.268,0,384,384,240,1,411_adfd0d5782129756321ff671d0cfb712528504c66c863df11aabd1e7_orig.jpg,-3.392332,-1.369576,original,dino02,2022-04-20_19h53.00.487,ratings,2022.1.1,Win32,59.95203837
0.842696629,1.874,0.608614232,2.582,0,385,385,4,1,13_771f4fcf0a212d25d6a78565e7f34cc5ddd823e7afbdc77ef063326e_circblurint.jpg,2.190476,0.0,circularblurringint,dino02,2022-04-20_19h53.00.487,ratings,2022.1.1,Win32,59.95203837
-2.031835206,2.626,-2.172284644,3.643,0,386,386,313,1,459_46e25de472bb056cb470716d30937415f7344bfc4354d6eb710d8c9f_bw.jpg,0.03174604,0.0,blackwhite,dino02,2022-04-20_19h53.00.487,ratings,2022.1.1,Win32,59.95203837
-0.046816479,2.257,-2.172284644,3.292,0,387,387,92,1,258_d26019382777d2159a974a7654923e71598135ce2cd710cea1f92865_edges.jpg,3.497684,-0.61104,edges,dino02,2022-04-20_19h53.00.487,ratings,2022.1.1,Win32,59.95203837
-2.041198502,5.117,-2.06928839,3.648,0,388,388,361,1,508_a7a9519cdc7aad6844030f4e6cd96cffd1b9c49b71e20ea52789bda2_bw.jpg,-3.000388,-1.29694,blackwhite,dino02,2022-04-20_19h53.00.487,ratings,2022.1.1,Win32,59.95203837
-1.601123596,2.21,-1.938202247,3.043,0,389,389,415,1,692_7d7eaf20e6de8956f0fca7500ace97a8599aa8b605a7d690cdb28724_bw.jpg,-2.063492,-1.26984,blackwhite,dino02,2022-04-20_19h53.00.487,ratings,2022.1.1,Win32,59.95203837
0.674157303,1.816,0.683520599,2.581,0,390,390,411,1,687_e3b018945792a574962235c88c553b7c318c75eec2596478e8a7b877_blur.jpg,3.63918,-0.42586,blurring,dino02,2022-04-20_19h53.00.487,ratings,2022.1.1,Win32,59.95203837
-3.586142322,1.829,-2.996254682,2.817,0,391,391,534,1,986_a77edb21e78bc3a6aa7406517824596b3496ad6c657b6befb84cf370_orig.jpg,-3.906316,-0.60496,original,dino02,2022-04-20_19h53.00.487,ratings,2022.1.1,Win32,59.95203837
1.975655431,1.773,2.397003745,2.413,0,392,392,27,1,59_8568373b727f29d67ba6ce4c360dd918c8b08b13495fca56bdda5e82_blur.jpg,2.064896,0.505688,blurring,dino02,2022-04-20_19h53.00.487,ratings,2022.1.1,Win32,59.95203837
1.994382022,1.449,1.676029963,2.333,0,393,393,525,1,877_cab3efed0c9ff4552037df6c1ea4ea9713f915c94592a14dbf2799da_blur.jpg,3.174604,0.3174604,blurring,dino02,2022-04-20_19h53.00.487,ratings,2022.1.1,Win32,59.95203837
0.514981273,2.028,-0.543071161,4.61,0,394,394,54,1,137_0e6a04243c0a42a5e2528a2d181255ca2a4b7bd6e7978c5c2059c69f_orig.jpg,-0.95238,2.095236,original,dino02,2022-04-20_19h53.00.487,ratings,2022.1.1,Win32,59.95203837
1.198501873,2.247,1.292134831,3.143,0,395,395,277,1,440_9bf7e8609729bf888835168834da6c3ff30b75d0d4f36e2ee6918bcc_bw.jpg,-2.284164,2.710028,blackwhite,dino02,2022-04-20_19h53.00.487,ratings,2022.1.1,Win32,59.95203837
1.189138577,1.73,1.554307116,2.379,0,396,396,114,1,332_4d584229bdae2e1782f77f0e953e528f13c3dfa79b4b94736c0310fa_orig.jpg,3.157348,0.483092,original,dino02,2022-04-20_19h53.00.487,ratings,2022.1.1,Win32,59.95203837
-1.413857678,1.657,-2.294007491,3.564,0,397,397,88,1,243_beddb302dcb21071d88c8d2cab07002050d36b3001ef28f89389fa56_circblurint.jpg,-0.3450656,-0.2070392,circularblurringint,dino02,2022-04-20_19h53.00.487,ratings,2022.1.1,Win32,59.95203837
-1.170411985,3.392,-1.001872659,4.929,0,398,398,573,1,1039_d64da8480fc6e94dcdc513237d600570ae0b9fe48795ac6a8b2d29a7_blur.jpg,-2.507936,-1.142856,blurring,dino02,2022-04-20_19h53.00.487,ratings,2022.1.1,Win32,59.95203837
-2.715355805,1.655,-2.986891386,2.339,0,399,399,319,1,460_e06b3af7ff2f2bfb5f9b6e3d5dc25b9aaa40b84823fac8fd934621bd_bw.jpg,-3.430992,-1.607468,blackwhite,dino02,2022-04-20_19h53.00.487,ratings,2022.1.1,Win32,59.95203837
0.496254682,1.939,-1.507490637,3.925,0,400,400,109,1,293_3dfdfafc0c6a54b2da7453750ac281f7718c0b3337b0a74c4563d6bd_bw.jpg,-2.574524,2.632596,blackwhite,dino02,2022-04-20_19h53.00.487,ratings,2022.1.1,Win32,59.95203837
1.835205993,24.814,1.488764045,26.184,0,401,401,51,1,112_b6a4ce721c2e42943d7d8b168751d74cd2f372b1cd4fed5a4404faec_blur.jpg,2.107036,0.505688,blurring,dino02,2022-04-20_19h53.00.487,ratings,2022.1.1,Win32,59.95203837
1.638576779,1.445,1.694756554,1.939,0,402,402,185,1,369_98db62a1bdabfd1bc551180da6658005b461585cd21614633cf76470_circblurext.jpg,2.190476,-0.03174604,circularblurringext,dino02,2022-04-20_19h53.00.487,ratings,2022.1.1,Win32,59.95203837
-1.020599251,3.241,0.009363296,5.762,0,403,403,561,1,1022_cf035e583d41a856836f8b0ae314ecbe79dffd9e40ef6a08cc26028f_blur.jpg,-0.2516452,3.05846,blurring,dino02,2022-04-20_19h53.00.487,ratings,2022.1.1,Win32,59.95203837
1.498127341,7.779,1.310861423,8.856,0,404,404,36,1,82_43f4d5aec7c2e5bd495473f6708a0f2d47c9fe34e1fe9436646cb036_orig.jpg,2.022756,0.505688,original,dino02,2022-04-20_19h53.00.487,ratings,2022.1.1,Win32,59.95203837
0.496254682,1.476,1.011235955,2.258,0,405,405,391,1,663_aaf52107fe3a86392530d88b34e86f9d2b6820714cad98d1e3c2cb67_bw.jpg,2.58766,0.0918696,blackwhite,dino02,2022-04-20_19h53.00.487,ratings,2022.1.1,Win32,59.95203837
0.187265918,2.301,-1.301498127,3.442,0,406,406,131,1,349_18d92ef5c21ca70a3dd237aad251594e1688bbe01d8cff37b89c46b8_circblurext.jpg,-2.74874,-1.258228,circularblurringext,dino02,2022-04-20_19h53.00.487,ratings,2022.1.1,Win32,59.95203837
-1.001872659,2.065,-1.104868914,3.726,0,407,407,560,1,1022_cf035e583d41a856836f8b0ae314ecbe79dffd9e40ef6a08cc26028f_edges.jpg,-0.2516452,3.05846,edges,dino02,2022-04-20_19h53.00.487,ratings,2022.1.1,Win32,59.95203837
-0.43071161,5.768,-1.816479401,7.236,0,408,408,488,1,818_877aae033c31e3bbca4486321a5307f87cf53c576c546462d3daf194_edges.jpg,-1.277584,0.619436,edges,dino02,2022-04-20_19h53.00.487,ratings,2022.1.1,Win32,59.95203837
-1.095505618,2.005,-1.928838951,2.882,0,409,409,551,1,1010_06d15f44b979c086561137000ec070ba4cd479856f92840a7850b2bf_circblurext.jpg,0.189786,-0.189786,circularblurringext,dino02,2022-04-20_19h53.00.487,ratings,2022.1.1,Win32,59.95203837
-1.498127341,1.694,-2.059925094,2.526,0,410,410,580,1,1061_665178b9cb0bc869cc2e2b68def4838db04e66f9531098fb75875a09_circblurint.jpg,0.3492064,-0.3174604,circularblurringint,dino02,2022-04-20_19h53.00.487,ratings,2022.1.1,Win32,59.95203837
-2.574906367,1.433,-2.97752809,1.946,0,411,411,251,1,414_0187bdf7007109b487865b6a9d388997a6817acf052a6a7cdd5b39d9_circblurext.jpg,-2.786708,-1.133056,circularblurringext,dino02,2022-04-20_19h53.00.487,ratings,2022.1.1,Win32,59.95203837
1.601123596,1.695,1.619850187,2.447,0,412,412,15,1,39_2fafccaa4dc69045a05845f59c6b3cd2edcf7e0e0c108b24e553afe0_blur.jpg,2.022756,0.463548,blurring,dino02,2022-04-20_19h53.00.487,ratings,2022.1.1,Win32,59.95203837
-0.758426966,3.644,1.722846442,4.309,0,413,413,583,1,1225_59c67a821456f2cce3e5acf66d7f00076bd02caffc984c1eb0df794e_bw.jpg,-0.444444,3.809524,blackwhite,dino02,2022-04-20_19h53.00.487,ratings,2022.1.1,Win32,59.95203837
1.872659176,1.707,1.516853933,2.334,0,414,414,53,1,112_b6a4ce721c2e42943d7d8b168751d74cd2f372b1cd4fed5a4404faec_circblurext.jpg,2.107036,0.505688,circularblurringext,dino02,2022-04-20_19h53.00.487,ratings,2022.1.1,Win32,59.95203837
1.076779026,2.731,0.823970037,3.696,0,415,415,268,1,431_ab5a1dbbe9292ac7f74e276cdabcd372e2c1f852ff34bf7cc6646ef8_circblurint.jpg,3.102584,0.354334,circularblurringint,dino02,2022-04-20_19h53.00.487,ratings,2022.1.1,Win32,59.95203837
0.421348315,2.108,-0.599250936,2.792,0,416,416,60,1,156_08e8cf8f04630e9213e610580de73f51572d1d589878648700bae4dc_orig.jpg,2.222224,0.0,original,dino02,2022-04-20_19h53.00.487,ratings,2022.1.1,Win32,59.95203837
0.346441948,1.956,0.458801498,2.76,0,417,417,301,1,453_54f106fd1d4b65fa4aa347407127fc30d49f791e81aee3a0bbe44489_bw.jpg,2.222224,0.0,blackwhite,dino02,2022-04-20_19h53.00.487,ratings,2022.1.1,Win32,59.95203837
0.074906367,1.822,-1.38576779,3.042,0,418,418,67,1,172_c641c6c56ca6b594b773084e1363c852abdb65f988d7ff802ee503f2_bw.jpg,0.379572,0.01725328,blackwhite,dino02,2022-04-20_19h53.00.487,ratings,2022.1.1,Win32,59.95203837
-0.580524345,4.875,-1.329588015,6.326,0,419,419,239,1,410_9633c4ff6e8888fcfca59a60ca86e9606d3e0736500a254101bdf295_circblurext.jpg,-0.3677892,2.981028,circularblurringext,dino02,2022-04-20_19h53.00.487,ratings,2022.1.1,Win32,59.95203837
0.028089888,1.84,-1.245318352,3.665,0,420,420,468,1,741_2b218fb015e3da83db73cacdb52e61e0c2534c1fe255bb1c5c74d47f_orig.jpg,3.140096,0.448584,original,dino02,2022-04-20_19h53.00.487,ratings,2022.1.1,Win32,59.95203837
-2.705992509,1.544,-2.565543071,2.359,0,421,421,570,1,1039_d64da8480fc6e94dcdc513237d600570ae0b9fe48795ac6a8b2d29a7_orig.jpg,-2.507936,-1.142856,original,dino02,2022-04-20_19h53.00.487,ratings,2022.1.1,Win32,59.95203837
1.938202247,1.514,1.629213483,2.216,0,422,422,503,1,854_081a8409e4d6d10923b2dedcc16a3fca405fcd602e55a20d84cac69d_circblurext.jpg,3.088264,1.21538,circularblurringext,dino02,2022-04-20_19h53.00.487,ratings,2022.1.1,Win32,59.95203837
0.945692884,3.493,-0.112359551,4.394,0,423,423,181,1,369_98db62a1bdabfd1bc551180da6658005b461585cd21614633cf76470_bw.jpg,2.190476,-0.03174604,blackwhite,dino02,2022-04-20_19h53.00.487,ratings,2022.1.1,Win32,59.95203837
-2.415730337,1.515,-2.172284644,2.211,0,424,424,316,1,459_46e25de472bb056cb470716d30937415f7344bfc4354d6eb710d8c9f_circblurint.jpg,0.03174604,0.0,circularblurringint,dino02,2022-04-20_19h53.00.487,ratings,2022.1.1,Win32,59.95203837
0.880149813,2.012,0.777153558,3.264,0,425,425,504,1,855_66d893451dfd1e7615132071c6c8a82b02dc2b37781cd89400883b26_orig.jpg,2.69484,0.2143624,original,dino02,2022-04-20_19h53.00.487,ratings,2022.1.1,Win32,59.95203837
-3.005617978,1.863,-3.08988764,2.674,0,426,426,137,1,349_8809a67686d34844c915d7700e2ea72ad1c02ae232ae0d3cc0e458d4_circblurext.jpg,-3.619048,-0.2857144,circularblurringext,dino02,2022-04-20_19h53.00.487,ratings,2022.1.1,Win32,59.95203837
-0.702247191,2.833,-2.415730337,5.081,0,427,427,106,1,284_cdcbd54fc995081ac95c8b2c37a19cebb341f61a8eb268cee1623492_circblurint.jpg,-1.015872,2.095236,circularblurringint,dino02,2022-04-20_19h53.00.487,ratings,2022.1.1,Win32,59.95203837
0.861423221,2.576,1.048689139,3.58,0,428,428,485,1,759_95e1c46ed9a337414d5c8eada8fa8b9632e18751f5ce6ed587806e91_circblurext.jpg,2.126984,0.0,circularblurringext,dino02,2022-04-20_19h53.00.487,ratings,2022.1.1,Win32,59.95203837
1.170411985,1.291,0.945692884,3.147,0,429,429,567,1,1037_e2eb929a6de79a63ce6cfe5321fcb74a203b134e4094932d90b01d99_blur.jpg,2.651956,0.0,blurring,dino02,2022-04-20_19h53.00.487,ratings,2022.1.1,Win32,59.95203837
-1.011235955,2.641,-0.243445693,4.543,0,430,430,398,1,683_a004ad18331da968da5debdd15e1447dd7748750af0bc6c57b844200_edges.jpg,-2.91956,2.466524,edges,dino02,2022-04-20_19h53.00.487,ratings,2022.1.1,Win32,59.95203837
-0.121722846,2.911,-1.020599251,4.567,0,431,431,222,1,403_57ac47f43882fc031a6067b1a388c0b2cbe8708dcbd2ff1019932eff_orig.jpg,-3.333332,-1.396824,original,dino02,2022-04-20_19h53.00.487,ratings,2022.1.1,Win32,59.95203837
-0.458801498,2.992,-1.301498127,7.288,0,432,432,258,1,416_8a1f874e0057d67a4e6955865ba88b2d8ce2c8b4469589307687a723_orig.jpg,-1.753336,3.088264,original,dino02,2022-04-20_19h53.00.487,ratings,2022.1.1,Win32,59.95203837
-2.855805243,1.561,-2.602996255,2.625,0,433,433,132,1,349_8809a67686d34844c915d7700e2ea72ad1c02ae232ae0d3cc0e458d4_orig.jpg,-3.619048,-0.2857144,original,dino02,2022-04-20_19h53.00.487,ratings,2022.1.1,Win32,59.95203837
0.131086142,4.634,-2.462546816,6.486,0,434,434,576,1,1061_665178b9cb0bc869cc2e2b68def4838db04e66f9531098fb75875a09_orig.jpg,0.3492064,-0.3174604,original,dino02,2022-04-20_19h53.00.487,ratings,2022.1.1,Win32,59.95203837
-1.11423221,2.324,-2.106741573,3.648,0,435,435,126,1,349_18d92ef5c21ca70a3dd237aad251594e1688bbe01d8cff37b89c46b8_orig.jpg,-2.74874,-1.258228,original,dino02,2022-04-20_19h53.00.487,ratings,2022.1.1,Win32,59.95203837
0.580524345,1.439,0.337078652,2.459,0,436,436,462,1,736_bb85db1bcda8eb34299aa5791ac65a0a7c343266eb2d6e6e328ec0e1_orig.jpg,3.650792,-0.03174604,original,dino02,2022-04-20_19h53.00.487,ratings,2022.1.1,Win32,59.95203837
-1.779026217,1.545,-1.985018727,2.458,0,437,437,196,1,379_eeaa6d9bf5a4ef205dc48bc505cf3a7f24ea86e99af9b371e03602a7_circblurint.jpg,-0.3926308,2.88936,circularblurringint,dino02,2022-04-20_19h53.00.487,ratings,2022.1.1,Win32,59.95203837
0.252808989,1.674,-1.807116105,2.523,0,438,438,543,1,1005_b980c0747d20935bc63cc27a9e05ce2ff5bae98f859872ec48edd7f5_blur.jpg,3.428572,-0.476192,blurring,dino02,2022-04-20_19h53.00.487,ratings,2022.1.1,Win32,59.95203837
0.47752809,2.198,-1.104868914,3.218,0,439,439,451,1,716_2ab64478147184c4df720a52cf621875addc9007cb2967e4a9a88909_bw.jpg,2.428484,0.0,blackwhite,dino02,2022-04-20_19h53.00.487,ratings,2022.1.1,Win32,59.95203837
-2.490636704,11.74,-2.116104869,12.752,0,440,440,321,1,460_e06b3af7ff2f2bfb5f9b6e3d5dc25b9aaa40b84823fac8fd934621bd_blur.jpg,-3.430992,-1.607468,blurring,dino02,2022-04-20_19h53.00.487,ratings,2022.1.1,Win32,59.95203837
-1.498127341,3.293,-0.112359551,6.983,0,441,441,262,1,416_8a1f874e0057d67a4e6955865ba88b2d8ce2c8b4469589307687a723_circblurint.jpg,-1.753336,3.088264,circularblurringint,dino02,2022-04-20_19h53.00.487,ratings,2022.1.1,Win32,59.95203837
0.786516854,3.113,0.692883895,3.767,0,442,442,83,1,242_85283f6935a89812ab229dcad9ba184529c9242ac3106d768ecf3ab3_circblurext.jpg,2.14918,-0.2949852,circularblurringext,dino02,2022-04-20_19h53.00.487,ratings,2022.1.1,Win32,59.95203837
-1.151685393,2.843,1.70411985,3.775,0,443,443,586,1,1225_59c67a821456f2cce3e5acf66d7f00076bd02caffc984c1eb0df794e_circblurint.jpg,-0.444444,3.809524,circularblurringint,dino02,2022-04-20_19h53.00.487,ratings,2022.1.1,Win32,59.95203837
0.711610487,2.494,-0.262172285,4.127,0,444,444,172,1,365_45a719cabbc9aa308c4fcb30d529489c6966ac4073874af84f665c61_circblurint.jpg,2.507936,-1.968252,circularblurringint,dino02,2022-04-20_19h53.00.487,ratings,2022.1.1,Win32,59.95203837
-2.846441948,1.307,-2.649812734,2.091,0,445,445,533,1,915_dc9fd40a3b5d64a180833a7bac86e7556c24f681f473fe255e41f936_circblurext.jpg,-3.09294,-0.918696,circularblurringext,dino02,2022-04-20_19h53.00.487,ratings,2022.1.1,Win32,59.95203837
0.252808989,3.56,-1.507490637,4.827,0,446,446,375,1,620_9674719009d75dcfeaed7f15932c43e1fd1af5e25d47b8aadd61efe2_blur.jpg,-0.561364,1.142084,blurring,dino02,2022-04-20_19h53.00.487,ratings,2022.1.1,Win32,59.95203837
-0.028089888,3.547,-1.853932584,4.632,0,447,447,260,1,416_8a1f874e0057d67a4e6955865ba88b2d8ce2c8b4469589307687a723_edges.jpg,-1.753336,3.088264,edges,dino02,2022-04-20_19h53.00.487,ratings,2022.1.1,Win32,59.95203837
0.402621723,1.945,-0.599250936,3.263,0,448,448,518,1,860_05c4e22518a30d3d2add458a8fc6488f87b9b02dd8e385ded939f025_edges.jpg,1.955092,0.3097172,edges,dino02,2022-04-20_19h53.00.487,ratings,2022.1.1,Win32,59.95203837
0.383895131,1.707,-0.449438202,2.445,0,449,449,63,1,156_08e8cf8f04630e9213e610580de73f51572d1d589878648700bae4dc_blur.jpg,2.222224,0.0,blurring,dino02,2022-04-20_19h53.00.487,ratings,2022.1.1,Win32,59.95203837
0.234082397,2.607,0.327715356,6.467,0,450,450,329,1,468_8b69b13120daebadd8a4a3166e1419f2404395cba231307a4efa9fde_circblurext.jpg,2.031744,0.2539684,circularblurringext,dino02,2022-04-20_19h53.00.487,ratings,2022.1.1,Win32,59.95203837
