valence_slider.response,valence_slider.rt,arousal_slider.response,arousal_slider.rt,trials.thisRepN,trials.thisTrialN,trials.thisN,trials.thisIndex,trials.ran,img_name,vm,am,manipulation,participant,date,expName,psychopyVersion,OS,frameRate
0.983146067,5.0931,-0.524344284,6.2967,0,0,0,391,1,663_aaf52107fe3a86392530d88b34e86f9d2b6820714cad98d1e3c2cb67_bw.jpg,2.58766,0.0918696,blackwhite,JOMO20,2022-04-25_20h06.38.880,ratings,2022.1.1,Win32,31.24414172
-1.985018441,3.7715,-1.685393258,5.5549,0,1,1,195,1,379_eeaa6d9bf5a4ef205dc48bc505cf3a7f24ea86e99af9b371e03602a7_blur.jpg,-0.3926308,2.88936,blurring,JOMO20,2022-04-25_20h06.38.880,ratings,2022.1.1,Win32,31.24414172
1.84456986,2.9918,1.376404494,3.9036,0,2,2,114,1,332_4d584229bdae2e1782f77f0e953e528f13c3dfa79b4b94736c0310fa_orig.jpg,3.157348,0.483092,original,JOMO20,2022-04-25_20h06.38.880,ratings,2022.1.1,Win32,31.24414172
-0.215355519,2.6967,-0.365168539,3.4377,0,3,3,440,1,700_59cb565f134f1afd066d7b6d936c6511b7cb76de0e9cbb5ce15124ad_edges.jpg,0.0,0.0,edges,JOMO20,2022-04-25_20h06.38.880,ratings,2022.1.1,Win32,31.24414172
-1.685393258,2.0138,0.009363582,2.8736,0,4,4,110,1,293_3dfdfafc0c6a54b2da7453750ac281f7718c0b3337b0a74c4563d6bd_edges.jpg,-2.574524,2.632596,edges,JOMO20,2022-04-25_20h06.38.880,ratings,2022.1.1,Win32,31.24414172
0.983146067,3.9554,-0.47752809,5.1277,0,5,5,46,1,92_5d20d78a8e57e628c6930676473a4e0a485e715841efd6286c660020_circblurint.jpg,2.126984,0.0,circularblurringint,JOMO20,2022-04-25_20h06.38.880,ratings,2022.1.1,Win32,31.24414172
-2.078651685,5.4525,0.074906939,4.0646,0,6,6,93,1,258_d26019382777d2159a974a7654923e71598135ce2cd710cea1f92865_blur.jpg,3.497684,-0.61104,blurring,JOMO20,2022-04-25_20h06.38.880,ratings,2022.1.1,Win32,31.24414172
-2.20037396,2.2644,-0.823969466,3.6823,0,7,7,15,1,39_2fafccaa4dc69045a05845f59c6b3cd2edcf7e0e0c108b24e553afe0_blur.jpg,2.022756,0.463548,blurring,JOMO20,2022-04-25_20h06.38.880,ratings,2022.1.1,Win32,31.24414172
-0.683520028,3.4572,-0.299625182,4.6658,0,8,8,87,1,243_beddb302dcb21071d88c8d2cab07002050d36b3001ef28f89389fa56_blur.jpg,-0.3450656,-0.2070392,blurring,JOMO20,2022-04-25_20h06.38.880,ratings,2022.1.1,Win32,31.24414172
-2.902621151,1.9555,-1.123595506,2.743,0,9,9,484,1,759_95e1c46ed9a337414d5c8eada8fa8b9632e18751f5ce6ed587806e91_circblurint.jpg,2.126984,0.0,circularblurringint,JOMO20,2022-04-25_20h06.38.880,ratings,2022.1.1,Win32,31.24414172
-2.471910112,2.3745,-1.61048632,3.9421,0,10,10,50,1,112_b6a4ce721c2e42943d7d8b168751d74cd2f372b1cd4fed5a4404faec_edges.jpg,2.107036,0.505688,edges,JOMO20,2022-04-25_20h06.38.880,ratings,2022.1.1,Win32,31.24414172
-2.378276868,2.6741,-0.580524059,3.6368,0,11,11,236,1,410_9633c4ff6e8888fcfca59a60ca86e9606d3e0736500a254101bdf295_edges.jpg,-0.3677892,2.981028,edges,JOMO20,2022-04-25_20h06.38.880,ratings,2022.1.1,Win32,31.24414172
-0.646067416,3.4995,-0.112359551,4.4227,0,12,12,32,1,60_ad52063167538de24f94d7dfd04808cb94cf8f426c40871d2f126505_edges.jpg,2.158732,0.0,edges,JOMO20,2022-04-25_20h06.38.880,ratings,2022.1.1,Win32,31.24414172
1.554308259,2.9031,0.496255253,5.3877,0,13,13,10,1,28_6318543b74eeb646a1735477ebc023fdc9ac3849bc0db1957c272a26_circblurint.jpg,2.811244,-0.74584,circularblurringint,JOMO20,2022-04-25_20h06.38.880,ratings,2022.1.1,Win32,31.24414172
-1.264044944,3.1597,-0.009362724,5.7598,0,14,14,294,1,449_9c1e990a3480e5b51430fe76b0188e69ba2468fd6a866b88b2d0dd75_orig.jpg,0.095238,0.03174604,original,JOMO20,2022-04-25_20h06.38.880,ratings,2022.1.1,Win32,31.24414172
-2.331460674,1.9404,-2.003744747,3.1067,0,15,15,532,1,915_dc9fd40a3b5d64a180833a7bac86e7556c24f681f473fe255e41f936_circblurint.jpg,-3.09294,-0.918696,circularblurringint,JOMO20,2022-04-25_20h06.38.880,ratings,2022.1.1,Win32,31.24414172
0.683520885,5.753,-0.795879578,6.7611,0,16,16,74,1,236_f645730e1eb06155418c9a571329cc7fa320654fcaaedf1048b5cc11_edges.jpg,2.253968,0.0,edges,JOMO20,2022-04-25_20h06.38.880,ratings,2022.1.1,Win32,31.24414172
-2.134831461,3.843,0.365168539,5.362,0,17,17,479,1,748_e519892faa7c772a0afaf9eeff36cf0e411574027ab3d9aa4947a048_circblurext.jpg,-1.813112,3.307432,circularblurringext,JOMO20,2022-04-25_20h06.38.880,ratings,2022.1.1,Win32,31.24414172
-1.685393258,1.4313,-0.018726306,2.5659,0,18,18,360,1,508_a7a9519cdc7aad6844030f4e6cd96cffd1b9c49b71e20ea52789bda2_orig.jpg,-3.000388,-1.29694,original,JOMO20,2022-04-25_20h06.38.880,ratings,2022.1.1,Win32,31.24414172
-1.666666095,1.8005,-0.870786517,3.0839,0,19,19,167,1,361_b5541309527dc3c2422f45a95ebb0ed32005e6fe10d0489a1ff1fbdc_circblurext.jpg,-3.987612,-0.2516452,circularblurringext,JOMO20,2022-04-25_20h06.38.880,ratings,2022.1.1,Win32,31.24414172
-0.299625182,1.5316,-0.880149241,2.4885,0,20,20,263,1,416_8a1f874e0057d67a4e6955865ba88b2d8ce2c8b4469589307687a723_circblurext.jpg,-1.753336,3.088264,circularblurringext,JOMO20,2022-04-25_20h06.38.880,ratings,2022.1.1,Win32,31.24414172
-1.797752809,2.3424,-1.938202247,2.9109,0,21,21,354,1,500_3b520c7f352afa1a9f8c07e56cc0588cdc04d25ff6e7b602b5e280cb_orig.jpg,-0.8328,3.11766,original,JOMO20,2022-04-25_20h06.38.880,ratings,2022.1.1,Win32,31.24414172
-1.198501587,2.2637,-0.926966292,3.0761,0,22,22,224,1,403_57ac47f43882fc031a6067b1a388c0b2cbe8708dcbd2ff1019932eff_edges.jpg,-3.333332,-1.396824,edges,JOMO20,2022-04-25_20h06.38.880,ratings,2022.1.1,Win32,31.24414172
0.514981559,3.0259,-0.374531264,3.7959,0,23,23,216,1,396_208259ea431d47bb7f3946213eb099834eb119756ce304ad473d4d9f_orig.jpg,2.857144,-0.3809524,original,JOMO20,2022-04-25_20h06.38.880,ratings,2022.1.1,Win32,31.24414172
-1.507490351,2.4514,0.028089888,3.3425,0,24,24,129,1,349_18d92ef5c21ca70a3dd237aad251594e1688bbe01d8cff37b89c46b8_blur.jpg,-2.74874,-1.258228,blurring,JOMO20,2022-04-25_20h06.38.880,ratings,2022.1.1,Win32,31.24414172
-0.617977528,2.7152,-0.196629213,3.6474,0,25,25,364,1,508_a7a9519cdc7aad6844030f4e6cd96cffd1b9c49b71e20ea52789bda2_circblurint.jpg,-3.000388,-1.29694,circularblurringint,JOMO20,2022-04-25_20h06.38.880,ratings,2022.1.1,Win32,31.24414172
-0.514980702,2.2485,-0.018726306,3.0142,0,26,26,218,1,396_208259ea431d47bb7f3946213eb099834eb119756ce304ad473d4d9f_edges.jpg,2.857144,-0.3809524,edges,JOMO20,2022-04-25_20h06.38.880,ratings,2022.1.1,Win32,31.24414172
1.273409383,1.3992,-0.271535295,2.3202,0,27,27,523,1,877_cab3efed0c9ff4552037df6c1ea4ea9713f915c94592a14dbf2799da_bw.jpg,3.174604,0.3174604,blackwhite,JOMO20,2022-04-25_20h06.38.880,ratings,2022.1.1,Win32,31.24414172
-0.646067416,6.0263,-0.973782486,8.4862,0,28,28,344,1,494_5c6c3b85a2734a43c24bfe337d42ffcc82b7347227804d01c784cef4_edges.jpg,0.03871468,0.0,edges,JOMO20,2022-04-25_20h06.38.880,ratings,2022.1.1,Win32,31.24414172
-1.498126769,1.4195,-1.292134831,2.3532,0,29,29,342,1,494_5c6c3b85a2734a43c24bfe337d42ffcc82b7347227804d01c784cef4_orig.jpg,0.03871468,0.0,original,JOMO20,2022-04-25_20h06.38.880,ratings,2022.1.1,Win32,31.24414172
-0.571160477,2.6305,-0.898876404,4.0675,0,30,30,303,1,453_54f106fd1d4b65fa4aa347407127fc30d49f791e81aee3a0bbe44489_blur.jpg,2.222224,0.0,blurring,JOMO20,2022-04-25_20h06.38.880,ratings,2022.1.1,Win32,31.24414172
1.460674157,1.4234,-0.636703834,2.0991,0,31,31,409,1,687_e3b018945792a574962235c88c553b7c318c75eec2596478e8a7b877_bw.jpg,3.63918,-0.42586,blackwhite,JOMO20,2022-04-25_20h06.38.880,ratings,2022.1.1,Win32,31.24414172
1.638577922,3.9551,0.917603568,5.764,0,32,32,462,1,736_bb85db1bcda8eb34299aa5791ac65a0a7c343266eb2d6e6e328ec0e1_orig.jpg,3.650792,-0.03174604,original,JOMO20,2022-04-25_20h06.38.880,ratings,2022.1.1,Win32,31.24414172
1.001873231,2.0077,0.608614804,3.0109,0,33,33,53,1,112_b6a4ce721c2e42943d7d8b168751d74cd2f372b1cd4fed5a4404faec_circblurext.jpg,2.107036,0.505688,circularblurringext,JOMO20,2022-04-25_20h06.38.880,ratings,2022.1.1,Win32,31.24414172
-1.020598679,2.3894,-0.374531264,3.3173,0,34,34,416,1,692_7d7eaf20e6de8956f0fca7500ace97a8599aa8b605a7d690cdb28724_edges.jpg,-2.063492,-1.26984,edges,JOMO20,2022-04-25_20h06.38.880,ratings,2022.1.1,Win32,31.24414172
0.945693455,2.0049,0.393258427,3.0807,0,35,35,179,1,368_6507b94d7d0199f14efd3706db30c9c44b96085f84e9cc7792e3e0ae_circblurext.jpg,1.959544,0.400336,circularblurringext,JOMO20,2022-04-25_20h06.38.880,ratings,2022.1.1,Win32,31.24414172
-2.041198216,1.505,-0.973782486,4.9548,0,36,36,529,1,915_dc9fd40a3b5d64a180833a7bac86e7556c24f681f473fe255e41f936_bw.jpg,-3.09294,-0.918696,blackwhite,JOMO20,2022-04-25_20h06.38.880,ratings,2022.1.1,Win32,31.24414172
-1.900748778,1.5928,-1.039325843,3.166,0,37,37,389,1,646_577760d718dab44c6f04d77408c5644a120065ce07a9503957d0850a_circblurext.jpg,-2.690668,2.61324,circularblurringext,JOMO20,2022-04-25_20h06.38.880,ratings,2022.1.1,Win32,31.24414172
1.769662921,1.8031,1.198502444,2.5729,0,38,38,564,1,1037_e2eb929a6de79a63ce6cfe5321fcb74a203b134e4094932d90b01d99_orig.jpg,2.651956,0.0,original,JOMO20,2022-04-25_20h06.38.880,ratings,2022.1.1,Win32,31.24414172
1.423221545,1.8885,0.280898876,2.5523,0,39,39,225,1,403_57ac47f43882fc031a6067b1a388c0b2cbe8708dcbd2ff1019932eff_blur.jpg,-3.333332,-1.396824,blurring,JOMO20,2022-04-25_20h06.38.880,ratings,2022.1.1,Win32,31.24414172
-2.593632387,1.6194,-1.657303371,2.3974,0,40,40,133,1,349_8809a67686d34844c915d7700e2ea72ad1c02ae232ae0d3cc0e458d4_bw.jpg,-3.619048,-0.2857144,blackwhite,JOMO20,2022-04-25_20h06.38.880,ratings,2022.1.1,Win32,31.24414172
-2.640449438,1.3776,-1.732209452,2.2771,0,41,41,528,1,915_dc9fd40a3b5d64a180833a7bac86e7556c24f681f473fe255e41f936_orig.jpg,-3.09294,-0.918696,original,JOMO20,2022-04-25_20h06.38.880,ratings,2022.1.1,Win32,31.24414172
-1.928838666,3.4069,-0.486890814,4.0621,0,42,42,208,1,381_5935a9f9796adce2f1539af6c75bcdc0c80d847a2ce9b77cf59b7672_circblurint.jpg,-1.327432,-0.442476,circularblurringint,JOMO20,2022-04-25_20h06.38.880,ratings,2022.1.1,Win32,31.24414172
-1.189138005,2.3503,-0.468164508,3.5306,0,43,43,256,1,416_5eb54976bb41ce2a6d129ef985f792e716f010fb9b69b15f50f5d2db_circblurint.jpg,-2.58766,2.602972,circularblurringint,JOMO20,2022-04-25_20h06.38.880,ratings,2022.1.1,Win32,31.24414172
-3.389512823,1.5829,-1.170411699,2.3816,0,44,44,245,1,411_adfd0d5782129756321ff671d0cfb712528504c66c863df11aabd1e7_circblurext.jpg,-3.392332,-1.369576,circularblurringext,JOMO20,2022-04-25_20h06.38.880,ratings,2022.1.1,Win32,31.24414172
-1.207865169,1.955,-1.076778455,4.8052,0,45,45,367,1,616_05a637f5281666f53d4e2ef69351485fc21d629b37ee2006b2076eb6_bw.jpg,-2.380952,-0.832364,blackwhite,JOMO20,2022-04-25_20h06.38.880,ratings,2022.1.1,Win32,31.24414172
-0.646067416,1.6251,-0.337078652,2.3233,0,46,46,214,1,394_8e3a0cb945144d53bd1ace04b6256237ed9dcbbd9cb83f8a4886b0e6_circblurint.jpg,-2.593884,2.651956,circularblurringint,JOMO20,2022-04-25_20h06.38.880,ratings,2022.1.1,Win32,31.24414172
0.599251222,1.8534,0.374532121,2.6311,0,47,47,176,1,368_6507b94d7d0199f14efd3706db30c9c44b96085f84e9cc7792e3e0ae_edges.jpg,1.959544,0.400336,edges,JOMO20,2022-04-25_20h06.38.880,ratings,2022.1.1,Win32,31.24414172
-0.421348315,3.0257,-0.346441376,3.9819,0,48,48,393,1,663_aaf52107fe3a86392530d88b34e86f9d2b6820714cad98d1e3c2cb67_blur.jpg,2.58766,0.0918696,blurring,JOMO20,2022-04-25_20h06.38.880,ratings,2022.1.1,Win32,31.24414172
1.385768933,1.6598,0.215356377,2.7493,0,49,49,447,1,709_69c01dcde028a2a1a913f1a2a5026ae1748484f75c89217a040c6791_blur.jpg,1.432444,-0.01935732,blurring,JOMO20,2022-04-25_20h06.38.880,ratings,2022.1.1,Win32,31.24414172
0.983146067,1.5768,0.571161334,2.1572,0,50,50,153,1,355_00a76f54934d36566dd0e7b091b8aa6a56d8e6b32d349aa578a10b45_blur.jpg,2.910052,0.3439152,blurring,JOMO20,2022-04-25_20h06.38.880,ratings,2022.1.1,Win32,31.24414172
-1.43258427,1.8377,-0.486890814,2.4259,0,51,51,261,1,416_8a1f874e0057d67a4e6955865ba88b2d8ce2c8b4469589307687a723_blur.jpg,-1.753336,3.088264,blurring,JOMO20,2022-04-25_20h06.38.880,ratings,2022.1.1,Win32,31.24414172
1.30149927,1.718,0.290262458,2.9276,0,52,52,505,1,855_66d893451dfd1e7615132071c6c8a82b02dc2b37781cd89400883b26_bw.jpg,2.69484,0.2143624,blackwhite,JOMO20,2022-04-25_20h06.38.880,ratings,2022.1.1,Win32,31.24414172
-2.059924522,1.952,-1.123595506,2.6087,0,53,53,396,1,683_a004ad18331da968da5debdd15e1447dd7748750af0bc6c57b844200_orig.jpg,-2.91956,2.466524,original,JOMO20,2022-04-25_20h06.38.880,ratings,2022.1.1,Win32,31.24414172
0.720974354,4.768,-1.058052149,5.6761,0,54,54,500,1,854_081a8409e4d6d10923b2dedcc16a3fca405fcd602e55a20d84cac69d_edges.jpg,3.088264,1.21538,edges,JOMO20,2022-04-25_20h06.38.880,ratings,2022.1.1,Win32,31.24414172
0.308988764,1.916,0.234082683,3.0079,0,55,55,452,1,716_2ab64478147184c4df720a52cf621875addc9007cb2967e4a9a88909_edges.jpg,2.428484,0.0,edges,JOMO20,2022-04-25_20h06.38.880,ratings,2022.1.1,Win32,31.24414172
0.533707865,2.1697,0.580524916,3.2949,0,56,56,144,1,354_e46c3ec6fb00773f64f2bcd212385f253c389808fe724b7cf8611051_orig.jpg,2.018292,0.0,original,JOMO20,2022-04-25_20h06.38.880,ratings,2022.1.1,Win32,31.24414172
-0.308988764,3.1371,-0.458800927,3.9471,0,57,57,57,1,137_0e6a04243c0a42a5e2528a2d181255ca2a4b7bd6e7978c5c2059c69f_blur.jpg,-0.95238,2.095236,blurring,JOMO20,2022-04-25_20h06.38.880,ratings,2022.1.1,Win32,31.24414172
0.196629213,8.0781,-0.17790205,8.9226,0,58,58,220,1,396_208259ea431d47bb7f3946213eb099834eb119756ce304ad473d4d9f_circblurint.jpg,2.857144,-0.3809524,circularblurringint,JOMO20,2022-04-25_20h06.38.880,ratings,2022.1.1,Win32,31.24414172
0.852060211,1.8401,-0.140449438,2.7832,0,59,59,9,1,28_6318543b74eeb646a1735477ebc023fdc9ac3849bc0db1957c272a26_blur.jpg,2.811244,-0.74584,blurring,JOMO20,2022-04-25_20h06.38.880,ratings,2022.1.1,Win32,31.24414172
0.880150098,1.7545,0.028089888,2.3045,0,60,60,233,1,407_578d31d32e806706dde2563213f130b90e621abfed0e47ecabd85d27_circblurext.jpg,3.5873,-0.444444,circularblurringext,JOMO20,2022-04-25_20h06.38.880,ratings,2022.1.1,Win32,31.24414172
-2.921348315,1.275,-1.619849902,1.9806,0,61,61,335,1,482_a1cd28915c5044c018195ab0fff10dcc95e385246b045a7cd4463ff7_circblurext.jpg,-3.361852,-1.555612,circularblurringext,JOMO20,2022-04-25_20h06.38.880,ratings,2022.1.1,Win32,31.24414172
-3.071160477,1.2947,-1.104868342,1.8564,0,62,62,246,1,414_0187bdf7007109b487865b6a9d388997a6817acf052a6a7cdd5b39d9_orig.jpg,-2.786708,-1.133056,original,JOMO20,2022-04-25_20h06.38.880,ratings,2022.1.1,Win32,31.24414172
-0.280898876,1.6226,-0.449438202,2.2973,0,63,63,338,1,492_a1a4d288d3bc486c83c3b6a835c42891989f5ba781633932298a7676_edges.jpg,3.406892,-0.44522,edges,JOMO20,2022-04-25_20h06.38.880,ratings,2022.1.1,Win32,31.24414172
-1.451310576,2.9713,-0.402621151,3.7292,0,64,64,209,1,381_5935a9f9796adce2f1539af6c75bcdc0c80d847a2ce9b77cf59b7672_circblurext.jpg,-1.327432,-0.442476,circularblurringext,JOMO20,2022-04-25_20h06.38.880,ratings,2022.1.1,Win32,31.24414172
-1.498126769,1.9084,-1.310861137,2.7525,0,65,65,290,1,442_7449d79dae5d652af9b2429872cabdef938646ba024db2f431b3b28d_edges.jpg,1.619048,0.126984,edges,JOMO20,2022-04-25_20h06.38.880,ratings,2022.1.1,Win32,31.24414172
1.516853933,2.7202,1.423221545,3.6563,0,66,66,36,1,82_43f4d5aec7c2e5bd495473f6708a0f2d47c9fe34e1fe9436646cb036_orig.jpg,2.022756,0.505688,original,JOMO20,2022-04-25_20h06.38.880,ratings,2022.1.1,Win32,31.24414172
-2.546816194,2.088,-2.743445407,3.1365,0,67,67,406,1,686_6745b57686ad5d1bd6cf3e7ed5bc0243a154f8939e88e30321dfcfdb_circblurint.jpg,-1.523808,3.650792,circularblurringint,JOMO20,2022-04-25_20h06.38.880,ratings,2022.1.1,Win32,31.24414172
0.945693455,1.706,1.132959944,217.7862,0,68,68,6,1,28_6318543b74eeb646a1735477ebc023fdc9ac3849bc0db1957c272a26_orig.jpg,2.811244,-0.74584,original,JOMO20,2022-04-25_20h06.38.880,ratings,2022.1.1,Win32,31.24414172
0.786516854,3.5666,0.62734111,5.1693,0,69,69,498,1,854_081a8409e4d6d10923b2dedcc16a3fca405fcd602e55a20d84cac69d_orig.jpg,3.088264,1.21538,original,JOMO20,2022-04-25_20h06.38.880,ratings,2022.1.1,Win32,31.24414172
1.30149927,2.1398,1.217229607,2.8697,0,70,70,449,1,709_69c01dcde028a2a1a913f1a2a5026ae1748484f75c89217a040c6791_circblurext.jpg,1.432444,-0.01935732,circularblurringext,JOMO20,2022-04-25_20h06.38.880,ratings,2022.1.1,Win32,31.24414172
-0.505617978,3.6519,-0.037452612,4.5876,0,71,71,558,1,1022_cf035e583d41a856836f8b0ae314ecbe79dffd9e40ef6a08cc26028f_orig.jpg,-0.2516452,3.05846,original,JOMO20,2022-04-25_20h06.38.880,ratings,2022.1.1,Win32,31.24414172
-0.814606742,2.9668,-0.159175744,3.7548,0,72,72,155,1,355_00a76f54934d36566dd0e7b091b8aa6a56d8e6b32d349aa578a10b45_circblurext.jpg,2.910052,0.3439152,circularblurringext,JOMO20,2022-04-25_20h06.38.880,ratings,2022.1.1,Win32,31.24414172
-0.833333048,4.4619,-0.599250365,5.3178,0,73,73,585,1,1225_59c67a821456f2cce3e5acf66d7f00076bd02caffc984c1eb0df794e_blur.jpg,-0.444444,3.809524,blurring,JOMO20,2022-04-25_20h06.38.880,ratings,2022.1.1,Win32,31.24414172
0.917603568,5.209,-0.636703834,6.3173,0,74,74,566,1,1037_e2eb929a6de79a63ce6cfe5321fcb74a203b134e4094932d90b01d99_edges.jpg,2.651956,0.0,edges,JOMO20,2022-04-25_20h06.38.880,ratings,2022.1.1,Win32,31.24414172
1.460674157,16.1602,0.41198559,16.9509,0,75,75,231,1,407_578d31d32e806706dde2563213f130b90e621abfed0e47ecabd85d27_blur.jpg,3.5873,-0.444444,blurring,JOMO20,2022-04-25_20h06.38.880,ratings,2022.1.1,Win32,31.24414172
1.06741573,1.7539,0.26217257,2.7161,0,76,76,182,1,369_98db62a1bdabfd1bc551180da6658005b461585cd21614633cf76470_edges.jpg,2.190476,-0.03174604,edges,JOMO20,2022-04-25_20h06.38.880,ratings,2022.1.1,Win32,31.24414172
1.18913972,1.9702,0.655430997,3.2662,0,77,77,580,1,1061_665178b9cb0bc869cc2e2b68def4838db04e66f9531098fb75875a09_circblurint.jpg,0.3492064,-0.3174604,circularblurringint,JOMO20,2022-04-25_20h06.38.880,ratings,2022.1.1,Win32,31.24414172
-0.833333048,2.5655,-0.58988764,3.5917,0,78,78,405,1,686_6745b57686ad5d1bd6cf3e7ed5bc0243a154f8939e88e30321dfcfdb_blur.jpg,-1.523808,3.650792,blurring,JOMO20,2022-04-25_20h06.38.880,ratings,2022.1.1,Win32,31.24414172
0.458801784,4.6583,0.252808989,5.5437,0,79,79,550,1,1010_06d15f44b979c086561137000ec070ba4cd479856f92840a7850b2bf_circblurint.jpg,0.189786,-0.189786,circularblurringint,JOMO20,2022-04-25_20h06.38.880,ratings,2022.1.1,Win32,31.24414172
-1.385767219,2.2023,-0.674157303,2.8991,0,80,80,345,1,494_5c6c3b85a2734a43c24bfe337d42ffcc82b7347227804d01c784cef4_blur.jpg,0.03871468,0.0,blurring,JOMO20,2022-04-25_20h06.38.880,ratings,2022.1.1,Win32,31.24414172
-1.966292135,1.7015,-1.451310576,4.2564,0,81,81,12,1,39_2fafccaa4dc69045a05845f59c6b3cd2edcf7e0e0c108b24e553afe0_orig.jpg,2.022756,0.463548,original,JOMO20,2022-04-25_20h06.38.880,ratings,2022.1.1,Win32,31.24414172
0.543071447,46.78,0.62734111,48.8164,0,82,82,363,1,508_a7a9519cdc7aad6844030f4e6cd96cffd1b9c49b71e20ea52789bda2_blur.jpg,-3.000388,-1.29694,blurring,JOMO20,2022-04-25_20h06.38.880,ratings,2022.1.1,Win32,31.24414172
-1.179775281,25.9956,-0.739699803,26.7889,0,83,83,296,1,449_9c1e990a3480e5b51430fe76b0188e69ba2468fd6a866b88b2d0dd75_edges.jpg,0.095238,0.03174604,edges,JOMO20,2022-04-25_20h06.38.880,ratings,2022.1.1,Win32,31.24414172
1.245319495,4.677,0.355805815,5.7065,0,84,84,546,1,1010_06d15f44b979c086561137000ec070ba4cd479856f92840a7850b2bf_orig.jpg,0.189786,-0.189786,original,JOMO20,2022-04-25_20h06.38.880,ratings,2022.1.1,Win32,31.24414172
-2.406366755,2.5311,-1.488764045,3.4777,0,85,85,419,1,692_7d7eaf20e6de8956f0fca7500ace97a8599aa8b605a7d690cdb28724_circblurext.jpg,-2.063492,-1.26984,circularblurringext,JOMO20,2022-04-25_20h06.38.880,ratings,2022.1.1,Win32,31.24414172
-0.271535295,8.4951,-0.674157303,9.2541,0,86,86,221,1,396_208259ea431d47bb7f3946213eb099834eb119756ce304ad473d4d9f_circblurext.jpg,2.857144,-0.3809524,circularblurringext,JOMO20,2022-04-25_20h06.38.880,ratings,2022.1.1,Win32,31.24414172
1.207865169,48.1649,0.917603568,48.9956,0,87,87,33,1,60_ad52063167538de24f94d7dfd04808cb94cf8f426c40871d2f126505_blur.jpg,2.158732,0.0,blurring,JOMO20,2022-04-25_20h06.38.880,ratings,2022.1.1,Win32,31.24414172
0.646067416,1.7222,0.234082683,3.9954,0,88,88,170,1,365_45a719cabbc9aa308c4fcb30d529489c6966ac4073874af84f665c61_edges.jpg,2.507936,-1.968252,edges,JOMO20,2022-04-25_20h06.38.880,ratings,2022.1.1,Win32,31.24414172
-2.031834635,1.4816,-1.769662921,2.1964,0,89,89,575,1,1039_d64da8480fc6e94dcdc513237d600570ae0b9fe48795ac6a8b2d29a7_circblurext.jpg,-2.507936,-1.142856,circularblurringext,JOMO20,2022-04-25_20h06.38.880,ratings,2022.1.1,Win32,31.24414172
-2.08801441,1.9153,0.580524916,11.3427,0,90,90,14,1,39_2fafccaa4dc69045a05845f59c6b3cd2edcf7e0e0c108b24e553afe0_edges.jpg,2.022756,0.463548,edges,JOMO20,2022-04-25_20h06.38.880,ratings,2022.1.1,Win32,31.24414172
-1.179775281,2.3938,0.702247191,3.0099,0,91,91,277,1,440_9bf7e8609729bf888835168834da6c3ff30b75d0d4f36e2ee6918bcc_bw.jpg,-2.284164,2.710028,blackwhite,JOMO20,2022-04-25_20h06.38.880,ratings,2022.1.1,Win32,31.24414172
-1.919475084,1.6649,-2.144194185,2.7805,0,92,92,71,1,172_c641c6c56ca6b594b773084e1363c852abdb65f988d7ff802ee503f2_circblurext.jpg,0.379572,0.01725328,circularblurringext,JOMO20,2022-04-25_20h06.38.880,ratings,2022.1.1,Win32,31.24414172
0.505617978,2.1658,-1.882022472,3.2675,0,93,93,461,1,720_483c541c48959a597fcf44320941afaf8b7695105f90d65b5f6b30f2_circblurext.jpg,2.158732,-0.2539684,circularblurringext,JOMO20,2022-04-25_20h06.38.880,ratings,2022.1.1,Win32,31.24414172
-1.3951308,2.0701,-0.290261601,2.9874,0,94,94,435,1,694_f80f33613b268beffd6c044537cf3b44a84683d6e889bc37b8e9c34b_blur.jpg,-0.3785616,3.34728,blurring,JOMO20,2022-04-25_20h06.38.880,ratings,2022.1.1,Win32,31.24414172
-0.252808989,2.0349,-2.303370787,3.1115,0,95,95,283,1,440_dc6413e2b65369ee2587f4d85621742fe4ca87392d0a8ad2ea7d94e3_bw.jpg,-3.016216,1.69404,blackwhite,JOMO20,2022-04-25_20h06.38.880,ratings,2022.1.1,Win32,31.24414172
-2.02247191,2.0066,-0.318351488,2.9387,0,96,96,134,1,349_8809a67686d34844c915d7700e2ea72ad1c02ae232ae0d3cc0e458d4_edges.jpg,-3.619048,-0.2857144,edges,JOMO20,2022-04-25_20h06.38.880,ratings,2022.1.1,Win32,31.24414172
-2.902621151,1.4122,0.823970323,2.7399,0,97,97,241,1,411_adfd0d5782129756321ff671d0cfb712528504c66c863df11aabd1e7_bw.jpg,-3.392332,-1.369576,blackwhite,JOMO20,2022-04-25_20h06.38.880,ratings,2022.1.1,Win32,31.24414172
-1.844569003,1.7774,0.234082683,2.4341,0,98,98,436,1,694_f80f33613b268beffd6c044537cf3b44a84683d6e889bc37b8e9c34b_circblurint.jpg,-0.3785616,3.34728,circularblurringint,JOMO20,2022-04-25_20h06.38.880,ratings,2022.1.1,Win32,31.24414172
0.805244017,4.081,-1.048688567,7.2012,0,99,99,503,1,854_081a8409e4d6d10923b2dedcc16a3fca405fcd602e55a20d84cac69d_circblurext.jpg,3.088264,1.21538,circularblurringext,JOMO20,2022-04-25_20h06.38.880,ratings,2022.1.1,Win32,31.24414172
1.254682219,1.3176,0.26217257,2.5374,0,100,100,264,1,431_ab5a1dbbe9292ac7f74e276cdabcd372e2c1f852ff34bf7cc6646ef8_orig.jpg,3.102584,0.354334,original,JOMO20,2022-04-25_20h06.38.880,ratings,2022.1.1,Win32,31.24414172
-1.039325843,3.4784,-1.657303371,4.2105,0,101,101,299,1,449_9c1e990a3480e5b51430fe76b0188e69ba2468fd6a866b88b2d0dd75_circblurext.jpg,0.095238,0.03174604,circularblurringext,JOMO20,2022-04-25_20h06.38.880,ratings,2022.1.1,Win32,31.24414172
-1.3951308,1.3761,-1.367040913,2.019,0,102,102,143,1,353_44e285740cb41818482ac93fc5fbd72c18029444a1d7506c9fc053e7_circblurext.jpg,-3.232676,-0.87108,circularblurringext,JOMO20,2022-04-25_20h06.38.880,ratings,2022.1.1,Win32,31.24414172
-1.273407668,1.8719,-1.423220688,2.5401,0,103,103,56,1,137_0e6a04243c0a42a5e2528a2d181255ca2a4b7bd6e7978c5c2059c69f_edges.jpg,-0.95238,2.095236,edges,JOMO20,2022-04-25_20h06.38.880,ratings,2022.1.1,Win32,31.24414172
0.646067416,1.6268,-1.235955056,2.5072,0,104,104,105,1,284_cdcbd54fc995081ac95c8b2c37a19cebb341f61a8eb268cee1623492_blur.jpg,-1.015872,2.095236,blurring,JOMO20,2022-04-25_20h06.38.880,ratings,2022.1.1,Win32,31.24414172
1.020599537,1.5734,-0.159175744,2.1798,0,105,105,2,1,13_771f4fcf0a212d25d6a78565e7f34cc5ddd823e7afbdc77ef063326e_edges.jpg,2.190476,0.0,edges,JOMO20,2022-04-25_20h06.38.880,ratings,2022.1.1,Win32,31.24414172
0.112359551,3.4753,-1.076778455,4.0184,0,106,106,454,1,716_2ab64478147184c4df720a52cf621875addc9007cb2967e4a9a88909_circblurint.jpg,2.428484,0.0,circularblurringint,JOMO20,2022-04-25_20h06.38.880,ratings,2022.1.1,Win32,31.24414172
0.758426966,4.8536,0.187266489,5.7985,0,107,107,591,1,1228_557412d34d6a70b7c5d222e030aa485b351a4574e8ba1a3112d1d13d_blur.jpg,2.137444,0.703464,blurring,JOMO20,2022-04-25_20h06.38.880,ratings,2022.1.1,Win32,31.24414172
1.863297023,1.4744,0.823970323,2.707,0,108,108,174,1,368_6507b94d7d0199f14efd3706db30c9c44b96085f84e9cc7792e3e0ae_orig.jpg,1.959544,0.400336,original,JOMO20,2022-04-25_20h06.38.880,ratings,2022.1.1,Win32,31.24414172
1.226592332,1.7429,0.674157303,2.3908,0,109,109,463,1,736_bb85db1bcda8eb34299aa5791ac65a0a7c343266eb2d6e6e328ec0e1_bw.jpg,3.650792,-0.03174604,blackwhite,JOMO20,2022-04-25_20h06.38.880,ratings,2022.1.1,Win32,31.24414172
-2.696629213,2.5859,0.683520885,3.7409,0,110,110,493,1,824_b1d91cc824ce0d3d383d3147da88d3d6dbaf6be918bab79e3ec8f501_bw.jpg,-3.645176,-1.432784,blackwhite,JOMO20,2022-04-25_20h06.38.880,ratings,2022.1.1,Win32,31.24414172
0.861423792,1.5727,-1.198501587,2.303,0,111,111,349,1,498_305b74cdc4784d9d25e72724302e5402def70177ea31ae7e25fab66b_bw.jpg,3.04762,-0.444444,blackwhite,JOMO20,2022-04-25_20h06.38.880,ratings,2022.1.1,Win32,31.24414172
-3.071160477,1.3542,-1.460674157,4.3849,0,112,112,244,1,411_adfd0d5782129756321ff671d0cfb712528504c66c863df11aabd1e7_circblurint.jpg,-3.392332,-1.369576,circularblurringint,JOMO20,2022-04-25_20h06.38.880,ratings,2022.1.1,Win32,31.24414172
-1.114231924,2.3146,-0.861422935,3.1089,0,113,113,321,1,460_e06b3af7ff2f2bfb5f9b6e3d5dc25b9aaa40b84823fac8fd934621bd_blur.jpg,-3.430992,-1.607468,blurring,JOMO20,2022-04-25_20h06.38.880,ratings,2022.1.1,Win32,31.24414172
1.06741573,2.725,-1.189138005,3.3573,0,114,114,481,1,759_95e1c46ed9a337414d5c8eada8fa8b9632e18751f5ce6ed587806e91_bw.jpg,2.126984,0.0,blackwhite,JOMO20,2022-04-25_20h06.38.880,ratings,2022.1.1,Win32,31.24414172
0.749064242,1.4022,-1.554306545,3.0074,0,115,115,149,1,354_e46c3ec6fb00773f64f2bcd212385f253c389808fe724b7cf8611051_circblurext.jpg,2.018292,0.0,circularblurringext,JOMO20,2022-04-25_20h06.38.880,ratings,2022.1.1,Win32,31.24414172
-1.741573034,1.5851,-1.835205421,2.0994,0,116,116,23,1,48_2cc936b2483ab2944c9158e163342b874ef6c1492fd8fca08c0e096e_circblurext.jpg,-1.264224,-0.779604,circularblurringext,JOMO20,2022-04-25_20h06.38.880,ratings,2022.1.1,Win32,31.24414172
-0.421348315,1.9687,-0.458800927,2.7152,0,117,117,506,1,855_66d893451dfd1e7615132071c6c8a82b02dc2b37781cd89400883b26_edges.jpg,2.69484,0.2143624,edges,JOMO20,2022-04-25_20h06.38.880,ratings,2022.1.1,Win32,31.24414172
-2.705991938,1.457,-1.301497556,1.951,0,118,118,137,1,349_8809a67686d34844c915d7700e2ea72ad1c02ae232ae0d3cc0e458d4_circblurext.jpg,-3.619048,-0.2857144,circularblurringext,JOMO20,2022-04-25_20h06.38.880,ratings,2022.1.1,Win32,31.24414172
0.655430997,2.0751,-1.198501587,2.8118,0,119,119,583,1,1225_59c67a821456f2cce3e5acf66d7f00076bd02caffc984c1eb0df794e_bw.jpg,-0.444444,3.809524,blackwhite,JOMO20,2022-04-25_20h06.38.880,ratings,2022.1.1,Win32,31.24414172
-0.393258427,1.5126,-0.458800927,2.0826,0,120,120,311,1,455_34a7d8167619d110206c369e3f7dce8a3f99db763a9d8e2b956501d3_circblurext.jpg,-2.526412,-0.3827896,circularblurringext,JOMO20,2022-04-25_20h06.38.880,ratings,2022.1.1,Win32,31.24414172
-0.627340252,1.37,-0.215355519,2.3191,0,121,121,258,1,416_8a1f874e0057d67a4e6955865ba88b2d8ce2c8b4469589307687a723_orig.jpg,-1.753336,3.088264,original,JOMO20,2022-04-25_20h06.38.880,ratings,2022.1.1,Win32,31.24414172
-0.533707865,1.627,-0.308988764,2.3123,0,122,122,398,1,683_a004ad18331da968da5debdd15e1447dd7748750af0bc6c57b844200_edges.jpg,-2.91956,2.466524,edges,JOMO20,2022-04-25_20h06.38.880,ratings,2022.1.1,Win32,31.24414172
-2.790261601,1.1942,-2.172284073,1.854,0,123,123,243,1,411_adfd0d5782129756321ff671d0cfb712528504c66c863df11aabd1e7_blur.jpg,-3.392332,-1.369576,blurring,JOMO20,2022-04-25_20h06.38.880,ratings,2022.1.1,Win32,31.24414172
-0.730337079,3.9818,0.065543357,5.4079,0,124,124,369,1,616_05a637f5281666f53d4e2ef69351485fc21d629b37ee2006b2076eb6_blur.jpg,-2.380952,-0.832364,blurring,JOMO20,2022-04-25_20h06.38.880,ratings,2022.1.1,Win32,31.24414172
0.936329874,1.4807,0.41198559,2.1341,0,125,125,524,1,877_cab3efed0c9ff4552037df6c1ea4ea9713f915c94592a14dbf2799da_edges.jpg,3.174604,0.3174604,edges,JOMO20,2022-04-25_20h06.38.880,ratings,2022.1.1,Win32,31.24414172
-1.226591475,1.2145,0.47752809,1.7448,0,126,126,248,1,414_0187bdf7007109b487865b6a9d388997a6817acf052a6a7cdd5b39d9_edges.jpg,-2.786708,-1.133056,edges,JOMO20,2022-04-25_20h06.38.880,ratings,2022.1.1,Win32,31.24414172
0.018727163,1.82,0.205992795,2.5474,0,127,127,472,1,741_2b218fb015e3da83db73cacdb52e61e0c2534c1fe255bb1c5c74d47f_circblurint.jpg,3.140096,0.448584,circularblurringint,JOMO20,2022-04-25_20h06.38.880,ratings,2022.1.1,Win32,31.24414172
-0.112359551,1.4458,0.505617978,2.3504,0,128,128,551,1,1010_06d15f44b979c086561137000ec070ba4cd479856f92840a7850b2bf_circblurext.jpg,0.189786,-0.189786,circularblurringext,JOMO20,2022-04-25_20h06.38.880,ratings,2022.1.1,Win32,31.24414172
0.29962604,4.0073,0.514981559,4.642,0,129,129,141,1,353_44e285740cb41818482ac93fc5fbd72c18029444a1d7506c9fc053e7_blur.jpg,-3.232676,-0.87108,blurring,JOMO20,2022-04-25_20h06.38.880,ratings,2022.1.1,Win32,31.24414172
-1.72284587,5.7792,0.440075478,4.8263,0,130,130,399,1,683_a004ad18331da968da5debdd15e1447dd7748750af0bc6c57b844200_blur.jpg,-2.91956,2.466524,blurring,JOMO20,2022-04-25_20h06.38.880,ratings,2022.1.1,Win32,31.24414172
-2.153557767,1.3658,0.41198559,2.0419,0,131,131,536,1,986_a77edb21e78bc3a6aa7406517824596b3496ad6c657b6befb84cf370_edges.jpg,-3.906316,-0.60496,edges,JOMO20,2022-04-25_20h06.38.880,ratings,2022.1.1,Win32,31.24414172
-1.245317781,2.5245,-1.039325843,3.2286,0,132,132,424,1,692_e3e3bf88684fbbcdb9849a4147f9e2fcd39b0f083554a829aca4e9fa_circblurint.jpg,-0.44522,3.135888,circularblurringint,JOMO20,2022-04-25_20h06.38.880,ratings,2022.1.1,Win32,31.24414172
-1.245317781,1.5196,-1.376404494,2.1597,0,133,133,490,1,818_877aae033c31e3bbca4486321a5307f87cf53c576c546462d3daf194_circblurint.jpg,-1.277584,0.619436,circularblurringint,JOMO20,2022-04-25_20h06.38.880,ratings,2022.1.1,Win32,31.24414172
0.973783343,1.9209,-0.795879578,2.5189,0,134,134,108,1,293_3dfdfafc0c6a54b2da7453750ac281f7718c0b3337b0a74c4563d6bd_orig.jpg,-2.574524,2.632596,original,JOMO20,2022-04-25_20h06.38.880,ratings,2022.1.1,Win32,31.24414172
-0.926966292,2.3228,0.102996826,3.5173,0,135,135,320,1,460_e06b3af7ff2f2bfb5f9b6e3d5dc25b9aaa40b84823fac8fd934621bd_edges.jpg,-3.430992,-1.607468,edges,JOMO20,2022-04-25_20h06.38.880,ratings,2022.1.1,Win32,31.24414172
-1.235955056,2.0814,0.870786517,3.2278,0,136,136,586,1,1225_59c67a821456f2cce3e5acf66d7f00076bd02caffc984c1eb0df794e_circblurint.jpg,-0.444444,3.809524,circularblurringint,JOMO20,2022-04-25_20h06.38.880,ratings,2022.1.1,Win32,31.24414172
0.514981559,4.0204,-0.205991938,4.9955,0,137,137,147,1,354_e46c3ec6fb00773f64f2bcd212385f253c389808fe724b7cf8611051_blur.jpg,2.018292,0.0,blurring,JOMO20,2022-04-25_20h06.38.880,ratings,2022.1.1,Win32,31.24414172
-1.713483146,1.7826,-0.65543014,2.4755,0,138,138,514,1,858_2f6539ee36aba48c38dc716d4f7c3ae93367d6ddf23ab41745d4172c_circblurint.jpg,0.0623832,0.176752,circularblurringint,JOMO20,2022-04-25_20h06.38.880,ratings,2022.1.1,Win32,31.24414172
-1.816479115,2.1719,-1.404494382,2.6805,0,139,139,357,1,500_3b520c7f352afa1a9f8c07e56cc0588cdc04d25ff6e7b602b5e280cb_blur.jpg,-0.8328,3.11766,blurring,JOMO20,2022-04-25_20h06.38.880,ratings,2022.1.1,Win32,31.24414172
0.683520885,1.4028,0.131086714,2.0388,0,140,140,19,1,48_2cc936b2483ab2944c9158e163342b874ef6c1492fd8fca08c0e096e_bw.jpg,-1.264224,-0.779604,blackwhite,JOMO20,2022-04-25_20h06.38.880,ratings,2022.1.1,Win32,31.24414172
-1.338951025,1.2903,-0.870786517,1.8434,0,141,141,234,1,410_9633c4ff6e8888fcfca59a60ca86e9606d3e0736500a254101bdf295_orig.jpg,-0.3677892,2.981028,original,JOMO20,2022-04-25_20h06.38.880,ratings,2022.1.1,Win32,31.24414172
-2.069288104,1.4842,-1.741573034,1.9248,0,142,142,346,1,494_5c6c3b85a2734a43c24bfe337d42ffcc82b7347227804d01c784cef4_circblurint.jpg,0.03871468,0.0,circularblurringint,JOMO20,2022-04-25_20h06.38.880,ratings,2022.1.1,Win32,31.24414172
1.207865169,1.1897,-0.917602711,2.0974,0,143,143,76,1,236_f645730e1eb06155418c9a571329cc7fa320654fcaaedf1048b5cc11_circblurint.jpg,2.253968,0.0,circularblurringint,JOMO20,2022-04-25_20h06.38.880,ratings,2022.1.1,Win32,31.24414172
0.674157303,1.5776,-0.617977528,2.2321,0,144,144,581,1,1061_665178b9cb0bc869cc2e2b68def4838db04e66f9531098fb75875a09_circblurext.jpg,0.3492064,-0.3174604,circularblurringext,JOMO20,2022-04-25_20h06.38.880,ratings,2022.1.1,Win32,31.24414172
-2.425093061,1.8902,-1.54494382,2.5994,0,145,145,417,1,692_7d7eaf20e6de8956f0fca7500ace97a8599aa8b605a7d690cdb28724_blur.jpg,-2.063492,-1.26984,blurring,JOMO20,2022-04-25_20h06.38.880,ratings,2022.1.1,Win32,31.24414172
-2.031834635,2.0943,-0.65543014,2.6116,0,146,146,572,1,1039_d64da8480fc6e94dcdc513237d600570ae0b9fe48795ac6a8b2d29a7_edges.jpg,-2.507936,-1.142856,edges,JOMO20,2022-04-25_20h06.38.880,ratings,2022.1.1,Win32,31.24414172
0.898876404,1.2484,-0.758426966,1.8148,0,147,147,516,1,860_05c4e22518a30d3d2add458a8fc6488f87b9b02dd8e385ded939f025_orig.jpg,1.955092,0.3097172,original,JOMO20,2022-04-25_20h06.38.880,ratings,2022.1.1,Win32,31.24414172
1.629213483,1.3771,-0.983146067,1.9897,0,148,148,502,1,854_081a8409e4d6d10923b2dedcc16a3fca405fcd602e55a20d84cac69d_circblurint.jpg,3.088264,1.21538,circularblurringint,JOMO20,2022-04-25_20h06.38.880,ratings,2022.1.1,Win32,31.24414172
0.898876404,1.3349,-1.06741573,1.9512,0,149,149,426,1,694_7a14b8ab7c564dcb0f628c4de7f6cb54e4c5f6601f774bf167641c37_orig.jpg,1.819588,0.116144,original,JOMO20,2022-04-25_20h06.38.880,ratings,2022.1.1,Win32,31.24414172
-0.299625182,1.6335,-0.365168539,2.2272,0,150,150,101,1,267_792043debad81ce271cec5b3c3bd9d264efc13f362bec9c7a3f72fe7_circblurext.jpg,1.980616,0.2107036,circularblurringext,JOMO20,2022-04-25_20h06.38.880,ratings,2022.1.1,Win32,31.24414172
0.852060211,2.1784,-1.06741573,2.8979,0,151,151,517,1,860_05c4e22518a30d3d2add458a8fc6488f87b9b02dd8e385ded939f025_bw.jpg,1.955092,0.3097172,blackwhite,JOMO20,2022-04-25_20h06.38.880,ratings,2022.1.1,Win32,31.24414172
2.116106012,1.6166,-0.926966292,2.5495,0,152,152,118,1,332_4d584229bdae2e1782f77f0e953e528f13c3dfa79b4b94736c0310fa_circblurint.jpg,3.157348,0.483092,circularblurringint,JOMO20,2022-04-25_20h06.38.880,ratings,2022.1.1,Win32,31.24414172
-1.048688567,3.1187,-0.421348315,3.9789,0,153,153,276,1,440_9bf7e8609729bf888835168834da6c3ff30b75d0d4f36e2ee6918bcc_orig.jpg,-2.284164,2.710028,original,JOMO20,2022-04-25_20h06.38.880,ratings,2022.1.1,Win32,31.24414172
1.1048692,1.4854,-0.486890814,1.9357,0,154,154,121,1,347_27f0e47c2722605b950ccf9fa900f78271e4c3c874064ab5dacac160_bw.jpg,1.838948,0.3097172,blackwhite,JOMO20,2022-04-25_20h06.38.880,ratings,2022.1.1,Win32,31.24414172
-1.797752809,1.2266,0.73970066,3.2233,0,155,155,271,1,434_ba36d91204d7e578001f6a545d7501e65d209554def5a3c8b7583825_bw.jpg,-3.523808,1.428572,blackwhite,JOMO20,2022-04-25_20h06.38.880,ratings,2022.1.1,Win32,31.24414172
0.58988764,1.6579,-1.338951025,2.9038,0,156,156,81,1,242_85283f6935a89812ab229dcad9ba184529c9242ac3106d768ecf3ab3_blur.jpg,2.14918,-0.2949852,blurring,JOMO20,2022-04-25_20h06.38.880,ratings,2022.1.1,Win32,31.24414172
-2.106741573,1.5307,-0.0655425,2.8582,0,157,157,533,1,915_dc9fd40a3b5d64a180833a7bac86e7556c24f681f473fe255e41f936_circblurext.jpg,-3.09294,-0.918696,circularblurringext,JOMO20,2022-04-25_20h06.38.880,ratings,2022.1.1,Win32,31.24414172
-1.54494382,1.5216,0.037453469,2.1658,0,158,158,142,1,353_44e285740cb41818482ac93fc5fbd72c18029444a1d7506c9fc053e7_circblurint.jpg,-3.232676,-0.87108,circularblurringint,JOMO20,2022-04-25_20h06.38.880,ratings,2022.1.1,Win32,31.24414172
-0.318351488,3.5856,-0.777153272,4.3446,0,159,159,392,1,663_aaf52107fe3a86392530d88b34e86f9d2b6820714cad98d1e3c2cb67_edges.jpg,2.58766,0.0918696,edges,JOMO20,2022-04-25_20h06.38.880,ratings,2022.1.1,Win32,31.24414172
0.917603568,1.8193,-1.048688567,2.4709,0,160,160,169,1,365_45a719cabbc9aa308c4fcb30d529489c6966ac4073874af84f665c61_bw.jpg,2.507936,-1.968252,blackwhite,JOMO20,2022-04-25_20h06.38.880,ratings,2022.1.1,Win32,31.24414172
1.245319495,1.2897,-1.011235955,1.8921,0,161,161,383,1,640_0ddb4981a5f5842ed5b4f7ef941be53779189df5e718b1fc5475ad80_circblurext.jpg,2.571428,-1.873016,circularblurringext,JOMO20,2022-04-25_20h06.38.880,ratings,2022.1.1,Win32,31.24414172
-1.179775281,2.3298,0.196629213,4.4456,0,162,162,432,1,694_f80f33613b268beffd6c044537cf3b44a84683d6e889bc37b8e9c34b_orig.jpg,-0.3785616,3.34728,original,JOMO20,2022-04-25_20h06.38.880,ratings,2022.1.1,Win32,31.24414172
-0.889512823,1.328,0.524345141,1.8477,0,163,163,316,1,459_46e25de472bb056cb470716d30937415f7344bfc4354d6eb710d8c9f_circblurint.jpg,0.03174604,0.0,circularblurringint,JOMO20,2022-04-25_20h06.38.880,ratings,2022.1.1,Win32,31.24414172
0.093633245,1.4902,-0.458800927,2.2416,0,164,164,259,1,416_8a1f874e0057d67a4e6955865ba88b2d8ce2c8b4469589307687a723_bw.jpg,-1.753336,3.088264,blackwhite,JOMO20,2022-04-25_20h06.38.880,ratings,2022.1.1,Win32,31.24414172
-1.020598679,1.6999,-0.187265632,2.2776,0,165,165,552,1,1014_a5c212ca979d482cf94c2db7697aba75620391a64b030ab7ad2bbecf_orig.jpg,-3.174604,-1.374372,original,JOMO20,2022-04-25_20h06.38.880,ratings,2022.1.1,Win32,31.24414172
-2.771535295,1.3537,-0.121722275,1.9934,0,166,166,135,1,349_8809a67686d34844c915d7700e2ea72ad1c02ae232ae0d3cc0e458d4_blur.jpg,-3.619048,-0.2857144,blurring,JOMO20,2022-04-25_20h06.38.880,ratings,2022.1.1,Win32,31.24414172
0.056179775,1.2979,-0.646067416,2.0327,0,167,167,86,1,243_beddb302dcb21071d88c8d2cab07002050d36b3001ef28f89389fa56_edges.jpg,-0.3450656,-0.2070392,edges,JOMO20,2022-04-25_20h06.38.880,ratings,2022.1.1,Win32,31.24414172
-2.078651685,1.3198,0.29962604,1.9469,0,168,168,297,1,449_9c1e990a3480e5b51430fe76b0188e69ba2468fd6a866b88b2d0dd75_blur.jpg,0.095238,0.03174604,blurring,JOMO20,2022-04-25_20h06.38.880,ratings,2022.1.1,Win32,31.24414172
-2.640449438,1.457,1.058053006,3.7843,0,169,169,355,1,500_3b520c7f352afa1a9f8c07e56cc0588cdc04d25ff6e7b602b5e280cb_bw.jpg,-0.8328,3.11766,blackwhite,JOMO20,2022-04-25_20h06.38.880,ratings,2022.1.1,Win32,31.24414172
0.983146067,1.8195,-0.870786517,2.4914,0,170,170,11,1,28_6318543b74eeb646a1735477ebc023fdc9ac3849bc0db1957c272a26_circblurext.jpg,2.811244,-0.74584,circularblurringext,JOMO20,2022-04-25_20h06.38.880,ratings,2022.1.1,Win32,31.24414172
1.076779312,1.935,0.486891672,3.7553,0,171,171,485,1,759_95e1c46ed9a337414d5c8eada8fa8b9632e18751f5ce6ed587806e91_circblurext.jpg,2.126984,0.0,circularblurringext,JOMO20,2022-04-25_20h06.38.880,ratings,2022.1.1,Win32,31.24414172
-0.084269663,2.1093,-0.17790205,2.6559,0,172,172,578,1,1061_665178b9cb0bc869cc2e2b68def4838db04e66f9531098fb75875a09_edges.jpg,0.3492064,-0.3174604,edges,JOMO20,2022-04-25_20h06.38.880,ratings,2022.1.1,Win32,31.24414172
0.280898876,2.4464,-2.35018698,4.11,0,173,173,95,1,258_d26019382777d2159a974a7654923e71598135ce2cd710cea1f92865_circblurext.jpg,3.497684,-0.61104,circularblurringext,JOMO20,2022-04-25_20h06.38.880,ratings,2022.1.1,Win32,31.24414172
-0.168539326,4.43,-2.153557767,5.0979,0,174,174,476,1,748_e519892faa7c772a0afaf9eeff36cf0e411574027ab3d9aa4947a048_edges.jpg,-1.813112,3.307432,edges,JOMO20,2022-04-25_20h06.38.880,ratings,2022.1.1,Win32,31.24414172
-1.647939789,1.3223,-1.011235955,1.791,0,175,175,433,1,694_f80f33613b268beffd6c044537cf3b44a84683d6e889bc37b8e9c34b_bw.jpg,-0.3785616,3.34728,blackwhite,JOMO20,2022-04-25_20h06.38.880,ratings,2022.1.1,Win32,31.24414172
-1.87265889,2.3193,-0.786516854,2.9682,0,176,176,63,1,156_08e8cf8f04630e9213e610580de73f51572d1d589878648700bae4dc_blur.jpg,2.222224,0.0,blurring,JOMO20,2022-04-25_20h06.38.880,ratings,2022.1.1,Win32,31.24414172
1.039325843,1.5298,-1.011235955,2.1494,0,177,177,473,1,741_2b218fb015e3da83db73cacdb52e61e0c2534c1fe255bb1c5c74d47f_circblurext.jpg,3.140096,0.448584,circularblurringext,JOMO20,2022-04-25_20h06.38.880,ratings,2022.1.1,Win32,31.24414172
-1.863295309,1.7723,0.234082683,2.4898,0,178,178,570,1,1039_d64da8480fc6e94dcdc513237d600570ae0b9fe48795ac6a8b2d29a7_orig.jpg,-2.507936,-1.142856,original,JOMO20,2022-04-25_20h06.38.880,ratings,2022.1.1,Win32,31.24414172
1.704120422,1.7669,0.131086714,3.693,0,179,179,38,1,82_43f4d5aec7c2e5bd495473f6708a0f2d47c9fe34e1fe9436646cb036_edges.jpg,2.022756,0.505688,edges,JOMO20,2022-04-25_20h06.38.880,ratings,2022.1.1,Win32,31.24414172
0.037453469,4.5817,-1.601123596,7.3699,0,180,180,88,1,243_beddb302dcb21071d88c8d2cab07002050d36b3001ef28f89389fa56_circblurint.jpg,-0.3450656,-0.2070392,circularblurringint,JOMO20,2022-04-25_20h06.38.880,ratings,2022.1.1,Win32,31.24414172
-2.08801441,1.6751,0.561797753,3.7232,0,181,181,511,1,858_2f6539ee36aba48c38dc716d4f7c3ae93367d6ddf23ab41745d4172c_bw.jpg,0.0623832,0.176752,blackwhite,JOMO20,2022-04-25_20h06.38.880,ratings,2022.1.1,Win32,31.24414172
-2.940074621,1.557,1.058053006,2.4694,0,182,182,538,1,986_a77edb21e78bc3a6aa7406517824596b3496ad6c657b6befb84cf370_circblurint.jpg,-3.906316,-0.60496,circularblurringint,JOMO20,2022-04-25_20h06.38.880,ratings,2022.1.1,Win32,31.24414172
0.561797753,2.9359,-1.039325843,7.2593,0,183,183,64,1,156_08e8cf8f04630e9213e610580de73f51572d1d589878648700bae4dc_circblurint.jpg,2.222224,0.0,circularblurringint,JOMO20,2022-04-25_20h06.38.880,ratings,2022.1.1,Win32,31.24414172
0.112359551,1.3696,-1.807115533,1.9457,0,184,184,80,1,242_85283f6935a89812ab229dcad9ba184529c9242ac3106d768ecf3ab3_edges.jpg,2.14918,-0.2949852,edges,JOMO20,2022-04-25_20h06.38.880,ratings,2022.1.1,Win32,31.24414172
-0.833333048,2.5515,-1.001872373,3.3362,0,185,185,106,1,284_cdcbd54fc995081ac95c8b2c37a19cebb341f61a8eb268cee1623492_circblurint.jpg,-1.015872,2.095236,circularblurringint,JOMO20,2022-04-25_20h06.38.880,ratings,2022.1.1,Win32,31.24414172
-1.086142036,1.2196,-0.421348315,1.918,0,186,186,590,1,1228_557412d34d6a70b7c5d222e030aa485b351a4574e8ba1a3112d1d13d_edges.jpg,2.137444,0.703464,edges,JOMO20,2022-04-25_20h06.38.880,ratings,2022.1.1,Win32,31.24414172
0.73970066,3.7649,-0.833333048,4.5141,0,187,187,339,1,492_a1a4d288d3bc486c83c3b6a835c42891989f5ba781633932298a7676_blur.jpg,3.406892,-0.44522,blurring,JOMO20,2022-04-25_20h06.38.880,ratings,2022.1.1,Win32,31.24414172
-0.730337079,3.4579,-0.514980702,5.4458,0,188,188,329,1,468_8b69b13120daebadd8a4a3166e1419f2404395cba231307a4efa9fde_circblurext.jpg,2.031744,0.2539684,circularblurringext,JOMO20,2022-04-25_20h06.38.880,ratings,2022.1.1,Win32,31.24414172
0.786516854,1.4697,-2.031834635,3.0971,0,189,189,567,1,1037_e2eb929a6de79a63ce6cfe5321fcb74a203b134e4094932d90b01d99_blur.jpg,2.651956,0.0,blurring,JOMO20,2022-04-25_20h06.38.880,ratings,2022.1.1,Win32,31.24414172
1.685393258,2.1946,-2.219101124,2.9334,0,190,190,190,1,369_c99797771115d7627d4abe3415f814497288f91a7be1a04c17c776b9_circblurint.jpg,3.619824,-0.174216,circularblurringint,JOMO20,2022-04-25_20h06.38.880,ratings,2022.1.1,Win32,31.24414172
1.029963118,2.1716,-1.43258427,2.8072,0,191,191,61,1,156_08e8cf8f04630e9213e610580de73f51572d1d589878648700bae4dc_bw.jpg,2.222224,0.0,blackwhite,JOMO20,2022-04-25_20h06.38.880,ratings,2022.1.1,Win32,31.24414172
-1.217227893,1.5511,0.646067416,2.6754,0,192,192,401,1,683_a004ad18331da968da5debdd15e1447dd7748750af0bc6c57b844200_circblurext.jpg,-2.91956,2.466524,circularblurringext,JOMO20,2022-04-25_20h06.38.880,ratings,2022.1.1,Win32,31.24414172
-0.046816194,1.3678,0.861423792,1.9023,0,193,193,26,1,59_8568373b727f29d67ba6ce4c360dd918c8b08b13495fca56bdda5e82_edges.jpg,2.064896,0.505688,edges,JOMO20,2022-04-25_20h06.38.880,ratings,2022.1.1,Win32,31.24414172
-1.966292135,2.3949,0.046817051,3.7551,0,194,194,238,1,410_9633c4ff6e8888fcfca59a60ca86e9606d3e0736500a254101bdf295_circblurint.jpg,-0.3677892,2.981028,circularblurringint,JOMO20,2022-04-25_20h06.38.880,ratings,2022.1.1,Win32,31.24414172
0.870786517,6.256,-0.870786517,6.8401,0,195,195,301,1,453_54f106fd1d4b65fa4aa347407127fc30d49f791e81aee3a0bbe44489_bw.jpg,2.222224,0.0,blackwhite,JOMO20,2022-04-25_20h06.38.880,ratings,2022.1.1,Win32,31.24414172
1.619850759,1.2422,-2.406366755,2.5883,0,196,196,521,1,860_05c4e22518a30d3d2add458a8fc6488f87b9b02dd8e385ded939f025_circblurext.jpg,1.955092,0.3097172,circularblurringext,JOMO20,2022-04-25_20h06.38.880,ratings,2022.1.1,Win32,31.24414172
-1.142321812,1.3905,-2.02247191,2.4285,0,197,197,295,1,449_9c1e990a3480e5b51430fe76b0188e69ba2468fd6a866b88b2d0dd75_bw.jpg,0.095238,0.03174604,blackwhite,JOMO20,2022-04-25_20h06.38.880,ratings,2022.1.1,Win32,31.24414172
1.816479972,1.3594,-1.161048118,3.4405,0,198,198,37,1,82_43f4d5aec7c2e5bd495473f6708a0f2d47c9fe34e1fe9436646cb036_bw.jpg,2.022756,0.505688,blackwhite,JOMO20,2022-04-25_20h06.38.880,ratings,2022.1.1,Win32,31.24414172
1.076779312,1.1945,-2.02247191,1.6729,0,199,199,77,1,236_f645730e1eb06155418c9a571329cc7fa320654fcaaedf1048b5cc11_circblurext.jpg,2.253968,0.0,circularblurringext,JOMO20,2022-04-25_20h06.38.880,ratings,2022.1.1,Win32,31.24414172
0.720974354,1.8462,-0.402621151,2.743,0,200,200,217,1,396_208259ea431d47bb7f3946213eb099834eb119756ce304ad473d4d9f_bw.jpg,2.857144,-0.3809524,blackwhite,JOMO20,2022-04-25_20h06.38.880,ratings,2022.1.1,Win32,31.24414172
0.308988764,5.5786,-1.179775281,4.4399,0,201,201,509,1,855_66d893451dfd1e7615132071c6c8a82b02dc2b37781cd89400883b26_circblurext.jpg,2.69484,0.2143624,circularblurringext,JOMO20,2022-04-25_20h06.38.880,ratings,2022.1.1,Win32,31.24414172
-1.732209452,1.5296,0.234082683,2.5748,0,202,202,196,1,379_eeaa6d9bf5a4ef205dc48bc505cf3a7f24ea86e99af9b371e03602a7_circblurint.jpg,-0.3926308,2.88936,circularblurringint,JOMO20,2022-04-25_20h06.38.880,ratings,2022.1.1,Win32,31.24414172
2.059926237,1.1606,-1.956928553,1.8539,0,203,203,448,1,709_69c01dcde028a2a1a913f1a2a5026ae1748484f75c89217a040c6791_circblurint.jpg,1.432444,-0.01935732,circularblurringint,JOMO20,2022-04-25_20h06.38.880,ratings,2022.1.1,Win32,31.24414172
-1.488764045,1.3999,-2.228463848,2.1616,0,204,204,332,1,482_a1cd28915c5044c018195ab0fff10dcc95e385246b045a7cd4463ff7_edges.jpg,-3.361852,-1.555612,edges,JOMO20,2022-04-25_20h06.38.880,ratings,2022.1.1,Win32,31.24414172
-2.275280899,1.795,0.936329874,3.6878,0,205,205,358,1,500_3b520c7f352afa1a9f8c07e56cc0588cdc04d25ff6e7b602b5e280cb_circblurint.jpg,-0.8328,3.11766,circularblurringint,JOMO20,2022-04-25_20h06.38.880,ratings,2022.1.1,Win32,31.24414172
1.95692941,1.2839,-2.743445407,1.88,0,206,206,117,1,332_4d584229bdae2e1782f77f0e953e528f13c3dfa79b4b94736c0310fa_blur.jpg,3.157348,0.483092,blurring,JOMO20,2022-04-25_20h06.38.880,ratings,2022.1.1,Win32,31.24414172
1.872659748,1.3817,-1.694755983,2.1162,0,207,207,457,1,720_483c541c48959a597fcf44320941afaf8b7695105f90d65b5f6b30f2_bw.jpg,2.158732,-0.2539684,blackwhite,JOMO20,2022-04-25_20h06.38.880,ratings,2022.1.1,Win32,31.24414172
1.292134831,1.4441,-1.685393258,1.924,0,208,208,348,1,498_305b74cdc4784d9d25e72724302e5402def70177ea31ae7e25fab66b_orig.jpg,3.04762,-0.444444,original,JOMO20,2022-04-25_20h06.38.880,ratings,2022.1.1,Win32,31.24414172
1.947566686,1.3597,-1.573033708,1.9949,0,209,209,459,1,720_483c541c48959a597fcf44320941afaf8b7695105f90d65b5f6b30f2_blur.jpg,2.158732,-0.2539684,blurring,JOMO20,2022-04-25_20h06.38.880,ratings,2022.1.1,Win32,31.24414172
1.198502444,2.8938,-0.32771507,3.7126,0,210,210,68,1,172_c641c6c56ca6b594b773084e1363c852abdb65f988d7ff802ee503f2_edges.jpg,0.379572,0.01725328,edges,JOMO20,2022-04-25_20h06.38.880,ratings,2022.1.1,Win32,31.24414172
0.187266489,3.2436,-0.056179775,3.8794,0,211,211,3,1,13_771f4fcf0a212d25d6a78565e7f34cc5ddd823e7afbdc77ef063326e_blur.jpg,2.190476,0.0,blurring,JOMO20,2022-04-25_20h06.38.880,ratings,2022.1.1,Win32,31.24414172
0.468165365,1.3343,0.280898876,1.8501,0,212,212,422,1,692_e3e3bf88684fbbcdb9849a4147f9e2fcd39b0f083554a829aca4e9fa_edges.jpg,-0.44522,3.135888,edges,JOMO20,2022-04-25_20h06.38.880,ratings,2022.1.1,Win32,31.24414172
0.77715413,1.5883,-0.196629213,2.2574,0,213,213,353,1,498_305b74cdc4784d9d25e72724302e5402def70177ea31ae7e25fab66b_circblurext.jpg,3.04762,-0.444444,circularblurringext,JOMO20,2022-04-25_20h06.38.880,ratings,2022.1.1,Win32,31.24414172
-0.074906081,2.0208,-2.153557767,3.9276,0,214,214,442,1,700_59cb565f134f1afd066d7b6d936c6511b7cb76de0e9cbb5ce15124ad_circblurint.jpg,0.0,0.0,circularblurringint,JOMO20,2022-04-25_20h06.38.880,ratings,2022.1.1,Win32,31.24414172
0.674157303,1.5986,-2.172284073,2.3722,0,215,215,573,1,1039_d64da8480fc6e94dcdc513237d600570ae0b9fe48795ac6a8b2d29a7_blur.jpg,-2.507936,-1.142856,blurring,JOMO20,2022-04-25_20h06.38.880,ratings,2022.1.1,Win32,31.24414172
-2.397003174,1.264,0.337078652,1.8753,0,216,216,162,1,361_b5541309527dc3c2422f45a95ebb0ed32005e6fe10d0489a1ff1fbdc_orig.jpg,-3.987612,-0.2516452,original,JOMO20,2022-04-25_20h06.38.880,ratings,2022.1.1,Win32,31.24414172
-2.752808989,1.8788,0.945693455,2.6442,0,217,217,407,1,686_6745b57686ad5d1bd6cf3e7ed5bc0243a154f8939e88e30321dfcfdb_circblurext.jpg,-1.523808,3.650792,circularblurringext,JOMO20,2022-04-25_20h06.38.880,ratings,2022.1.1,Win32,31.24414172
0.646067416,1.9461,-1.217227893,3.8658,0,218,218,253,1,416_5eb54976bb41ce2a6d129ef985f792e716f010fb9b69b15f50f5d2db_bw.jpg,-2.58766,2.602972,blackwhite,JOMO20,2022-04-25_20h06.38.880,ratings,2022.1.1,Win32,31.24414172
1.722847585,1.367,-1.657303371,1.9199,0,219,219,165,1,361_b5541309527dc3c2422f45a95ebb0ed32005e6fe10d0489a1ff1fbdc_blur.jpg,-3.987612,-0.2516452,blurring,JOMO20,2022-04-25_20h06.38.880,ratings,2022.1.1,Win32,31.24414172
0.14981302,1.3219,-0.711609915,3.1489,0,220,220,260,1,416_8a1f874e0057d67a4e6955865ba88b2d8ce2c8b4469589307687a723_edges.jpg,-1.753336,3.088264,edges,JOMO20,2022-04-25_20h06.38.880,ratings,2022.1.1,Win32,31.24414172
-1.170411699,1.4747,-1.217227893,2.8715,0,221,221,107,1,284_cdcbd54fc995081ac95c8b2c37a19cebb341f61a8eb268cee1623492_circblurext.jpg,-1.015872,2.095236,circularblurringext,JOMO20,2022-04-25_20h06.38.880,ratings,2022.1.1,Win32,31.24414172
-1.779025646,3.8344,0.561797753,4.4608,0,222,222,156,1,358_157f8ac929713531a15b1ecf115e7b659cb90e83d675251e368d165f_orig.jpg,-3.777776,-0.571428,original,JOMO20,2022-04-25_20h06.38.880,ratings,2022.1.1,Win32,31.24414172
-1.61048632,1.5491,-2.162921348,2.0407,0,223,223,513,1,858_2f6539ee36aba48c38dc716d4f7c3ae93367d6ddf23ab41745d4172c_blur.jpg,0.0623832,0.176752,blurring,JOMO20,2022-04-25_20h06.38.880,ratings,2022.1.1,Win32,31.24414172
0.758426966,6.5193,-1.750935758,7.2632,0,224,224,266,1,431_ab5a1dbbe9292ac7f74e276cdabcd372e2c1f852ff34bf7cc6646ef8_edges.jpg,3.102584,0.354334,edges,JOMO20,2022-04-25_20h06.38.880,ratings,2022.1.1,Win32,31.24414172
1.029963118,1.3082,-1.198501587,2.555,0,225,225,24,1,59_8568373b727f29d67ba6ce4c360dd918c8b08b13495fca56bdda5e82_orig.jpg,2.064896,0.505688,original,JOMO20,2022-04-25_20h06.38.880,ratings,2022.1.1,Win32,31.24414172
1.516853933,1.2937,-1.413857106,1.8934,0,226,226,191,1,369_c99797771115d7627d4abe3415f814497288f91a7be1a04c17c776b9_circblurext.jpg,3.619824,-0.174216,circularblurringext,JOMO20,2022-04-25_20h06.38.880,ratings,2022.1.1,Win32,31.24414172
1.376404494,1.1158,-1.217227893,2.0887,0,227,227,5,1,13_771f4fcf0a212d25d6a78565e7f34cc5ddd823e7afbdc77ef063326e_circblurext.jpg,2.190476,0.0,circularblurringext,JOMO20,2022-04-25_20h06.38.880,ratings,2022.1.1,Win32,31.24414172
-2.790261601,1.1374,0.655430997,2.0632,0,228,228,330,1,482_a1cd28915c5044c018195ab0fff10dcc95e385246b045a7cd4463ff7_orig.jpg,-3.361852,-1.555612,original,JOMO20,2022-04-25_20h06.38.880,ratings,2022.1.1,Win32,31.24414172
-1.647939789,1.3106,0.983146067,2.0521,0,229,229,44,1,92_5d20d78a8e57e628c6930676473a4e0a485e715841efd6286c660020_edges.jpg,2.126984,0.0,edges,JOMO20,2022-04-25_20h06.38.880,ratings,2022.1.1,Win32,31.24414172
-1.956928553,1.6188,0.327715927,2.4257,0,230,230,574,1,1039_d64da8480fc6e94dcdc513237d600570ae0b9fe48795ac6a8b2d29a7_circblurint.jpg,-2.507936,-1.142856,circularblurringint,JOMO20,2022-04-25_20h06.38.880,ratings,2022.1.1,Win32,31.24414172
1.235955056,1.5582,-2.172284073,2.3694,0,231,231,382,1,640_0ddb4981a5f5842ed5b4f7ef941be53779189df5e718b1fc5475ad80_circblurint.jpg,2.571428,-1.873016,circularblurringint,JOMO20,2022-04-25_20h06.38.880,ratings,2022.1.1,Win32,31.24414172
0.898876404,1.1566,-1.198501587,2.211,0,232,232,477,1,748_e519892faa7c772a0afaf9eeff36cf0e411574027ab3d9aa4947a048_blur.jpg,-1.813112,3.307432,blurring,JOMO20,2022-04-25_20h06.38.880,ratings,2022.1.1,Win32,31.24414172
0.870786517,1.1833,-1.516853933,1.8108,0,233,233,60,1,156_08e8cf8f04630e9213e610580de73f51572d1d589878648700bae4dc_orig.jpg,2.222224,0.0,original,JOMO20,2022-04-25_20h06.38.880,ratings,2022.1.1,Win32,31.24414172
-0.252808989,2.2305,-0.65543014,2.7646,0,234,234,210,1,394_8e3a0cb945144d53bd1ace04b6256237ed9dcbbd9cb83f8a4886b0e6_orig.jpg,-2.593884,2.651956,original,JOMO20,2022-04-25_20h06.38.880,ratings,2022.1.1,Win32,31.24414172
1.048689424,2.0346,-2.265917317,2.8744,0,235,235,540,1,1005_b980c0747d20935bc63cc27a9e05ce2ff5bae98f859872ec48edd7f5_orig.jpg,3.428572,-0.476192,original,JOMO20,2022-04-25_20h06.38.880,ratings,2022.1.1,Win32,31.24414172
-0.018726306,1.671,-2.481272837,3.7081,0,236,236,128,1,349_18d92ef5c21ca70a3dd237aad251594e1688bbe01d8cff37b89c46b8_edges.jpg,-2.74874,-1.258228,edges,JOMO20,2022-04-25_20h06.38.880,ratings,2022.1.1,Win32,31.24414172
1.348314607,1.4614,-2.958800927,2.554,0,237,237,304,1,453_54f106fd1d4b65fa4aa347407127fc30d49f791e81aee3a0bbe44489_circblurint.jpg,2.222224,0.0,circularblurringint,JOMO20,2022-04-25_20h06.38.880,ratings,2022.1.1,Win32,31.24414172
2.191011236,1.394,-2.518726306,2.7919,0,238,238,115,1,332_4d584229bdae2e1782f77f0e953e528f13c3dfa79b4b94736c0310fa_bw.jpg,3.157348,0.483092,blackwhite,JOMO20,2022-04-25_20h06.38.880,ratings,2022.1.1,Win32,31.24414172
0.252808989,4.0566,-0.777153272,6.3311,0,239,239,324,1,468_8b69b13120daebadd8a4a3166e1419f2404395cba231307a4efa9fde_orig.jpg,2.031744,0.2539684,original,JOMO20,2022-04-25_20h06.38.880,ratings,2022.1.1,Win32,31.24414172
0.842696629,1.5224,-1.769662921,2.5575,0,240,240,410,1,687_e3b018945792a574962235c88c553b7c318c75eec2596478e8a7b877_edges.jpg,3.63918,-0.42586,edges,JOMO20,2022-04-25_20h06.38.880,ratings,2022.1.1,Win32,31.24414172
-3.258426966,1.1621,0.561797753,2.485,0,241,241,136,1,349_8809a67686d34844c915d7700e2ea72ad1c02ae232ae0d3cc0e458d4_circblurint.jpg,-3.619048,-0.2857144,circularblurringint,JOMO20,2022-04-25_20h06.38.880,ratings,2022.1.1,Win32,31.24414172
-1.189138005,2.4293,-0.80524316,4.1371,0,242,242,554,1,1014_a5c212ca979d482cf94c2db7697aba75620391a64b030ab7ad2bbecf_edges.jpg,-3.174604,-1.374372,edges,JOMO20,2022-04-25_20h06.38.880,ratings,2022.1.1,Win32,31.24414172
-1.573033708,1.5683,0.599251222,3.347,0,243,243,306,1,455_34a7d8167619d110206c369e3f7dce8a3f99db763a9d8e2b956501d3_orig.jpg,-2.526412,-0.3827896,original,JOMO20,2022-04-25_20h06.38.880,ratings,2022.1.1,Win32,31.24414172
0.730337079,3.1753,-0.664793722,3.9292,0,244,244,13,1,39_2fafccaa4dc69045a05845f59c6b3cd2edcf7e0e0c108b24e553afe0_bw.jpg,2.022756,0.463548,blackwhite,JOMO20,2022-04-25_20h06.38.880,ratings,2022.1.1,Win32,31.24414172
0.767790548,1.2261,-1.189138005,1.7383,0,245,245,504,1,855_66d893451dfd1e7615132071c6c8a82b02dc2b37781cd89400883b26_orig.jpg,2.69484,0.2143624,original,JOMO20,2022-04-25_20h06.38.880,ratings,2022.1.1,Win32,31.24414172
-2.312733511,1.5018,0.552435028,2.5781,0,246,246,356,1,500_3b520c7f352afa1a9f8c07e56cc0588cdc04d25ff6e7b602b5e280cb_edges.jpg,-0.8328,3.11766,edges,JOMO20,2022-04-25_20h06.38.880,ratings,2022.1.1,Win32,31.24414172
0.983146067,1.5799,-2.209737542,2.2321,0,247,247,381,1,640_0ddb4981a5f5842ed5b4f7ef941be53779189df5e718b1fc5475ad80_blur.jpg,2.571428,-1.873016,blurring,JOMO20,2022-04-25_20h06.38.880,ratings,2022.1.1,Win32,31.24414172
-2.406366755,1.87,0.973783343,4.2173,0,248,248,418,1,692_7d7eaf20e6de8956f0fca7500ace97a8599aa8b605a7d690cdb28724_circblurint.jpg,-2.063492,-1.26984,circularblurringint,JOMO20,2022-04-25_20h06.38.880,ratings,2022.1.1,Win32,31.24414172
-2.593632387,1.7591,0.823970323,3.0676,0,249,249,249,1,414_0187bdf7007109b487865b6a9d388997a6817acf052a6a7cdd5b39d9_blur.jpg,-2.786708,-1.133056,blurring,JOMO20,2022-04-25_20h06.38.880,ratings,2022.1.1,Win32,31.24414172
-1.376404494,1.5006,0.711610773,2.0713,0,250,250,309,1,455_34a7d8167619d110206c369e3f7dce8a3f99db763a9d8e2b956501d3_blur.jpg,-2.526412,-0.3827896,blurring,JOMO20,2022-04-25_20h06.38.880,ratings,2022.1.1,Win32,31.24414172
2.340825113,1.3448,-1.825842697,2.5148,0,251,251,445,1,709_69c01dcde028a2a1a913f1a2a5026ae1748484f75c89217a040c6791_bw.jpg,1.432444,-0.01935732,blackwhite,JOMO20,2022-04-25_20h06.38.880,ratings,2022.1.1,Win32,31.24414172
-0.449438202,1.5826,-0.159175744,2.1027,0,252,252,197,1,379_eeaa6d9bf5a4ef205dc48bc505cf3a7f24ea86e99af9b371e03602a7_circblurext.jpg,-0.3926308,2.88936,circularblurringext,JOMO20,2022-04-25_20h06.38.880,ratings,2022.1.1,Win32,31.24414172
-1.797752809,1.536,0.571161334,2.4862,0,253,253,274,1,434_ba36d91204d7e578001f6a545d7501e65d209554def5a3c8b7583825_circblurint.jpg,-3.523808,1.428572,circularblurringint,JOMO20,2022-04-25_20h06.38.880,ratings,2022.1.1,Win32,31.24414172
-1.479400463,1.7294,1.526218371,2.5361,0,254,254,375,1,620_9674719009d75dcfeaed7f15932c43e1fd1af5e25d47b8aadd61efe2_blur.jpg,-0.561364,1.142084,blurring,JOMO20,2022-04-25_20h06.38.880,ratings,2022.1.1,Win32,31.24414172
-1.43258427,1.8408,1.563670983,2.9119,0,255,255,376,1,620_9674719009d75dcfeaed7f15932c43e1fd1af5e25d47b8aadd61efe2_circblurint.jpg,-0.561364,1.142084,circularblurringint,JOMO20,2022-04-25_20h06.38.880,ratings,2022.1.1,Win32,31.24414172
1.029963118,2.4718,-1.591760014,3.1668,0,256,256,522,1,877_cab3efed0c9ff4552037df6c1ea4ea9713f915c94592a14dbf2799da_orig.jpg,3.174604,0.3174604,original,JOMO20,2022-04-25_20h06.38.880,ratings,2022.1.1,Win32,31.24414172
2.209738399,1.1968,-1.807115533,1.9174,0,257,257,288,1,442_7449d79dae5d652af9b2429872cabdef938646ba024db2f431b3b28d_orig.jpg,1.619048,0.126984,original,JOMO20,2022-04-25_20h06.38.880,ratings,2022.1.1,Win32,31.24414172
-2.631085857,1.2421,1.638577922,1.9796,0,258,258,251,1,414_0187bdf7007109b487865b6a9d388997a6817acf052a6a7cdd5b39d9_circblurext.jpg,-2.786708,-1.133056,circularblurringext,JOMO20,2022-04-25_20h06.38.880,ratings,2022.1.1,Win32,31.24414172
-0.80524316,1.4317,-0.945692598,2.7355,0,259,259,386,1,646_577760d718dab44c6f04d77408c5644a120065ce07a9503957d0850a_edges.jpg,-2.690668,2.61324,edges,JOMO20,2022-04-25_20h06.38.880,ratings,2022.1.1,Win32,31.24414172
-2.078651685,1.2995,0.374532121,2.7001,0,260,260,270,1,434_ba36d91204d7e578001f6a545d7501e65d209554def5a3c8b7583825_orig.jpg,-3.523808,1.428572,original,JOMO20,2022-04-25_20h06.38.880,ratings,2022.1.1,Win32,31.24414172
-0.908239129,3.2753,-0.95505618,4.4862,0,261,261,598,1,1239_cee00457f4cfb76a407b12fd5ad714d440a4614c1e5467ee16caf618_circblurint.jpg,-0.03174604,0.190476,circularblurringint,JOMO20,2022-04-25_20h06.38.880,ratings,2022.1.1,Win32,31.24414172
0.870786517,1.6919,-1.114231924,2.2832,0,262,262,569,1,1037_e2eb929a6de79a63ce6cfe5321fcb74a203b134e4094932d90b01d99_circblurext.jpg,2.651956,0.0,circularblurringext,JOMO20,2022-04-25_20h06.38.880,ratings,2022.1.1,Win32,31.24414172
0.674157303,1.3612,-1.367040913,1.8991,0,263,263,62,1,156_08e8cf8f04630e9213e610580de73f51572d1d589878648700bae4dc_edges.jpg,2.222224,0.0,edges,JOMO20,2022-04-25_20h06.38.880,ratings,2022.1.1,Win32,31.24414172
2.191011236,1.0968,-1.975654859,3.1069,0,264,264,444,1,709_69c01dcde028a2a1a913f1a2a5026ae1748484f75c89217a040c6791_orig.jpg,1.432444,-0.01935732,original,JOMO20,2022-04-25_20h06.38.880,ratings,2022.1.1,Win32,31.24414172
0.280898876,3.9738,-1.310861137,5.0216,0,265,265,328,1,468_8b69b13120daebadd8a4a3166e1419f2404395cba231307a4efa9fde_circblurint.jpg,2.031744,0.2539684,circularblurringint,JOMO20,2022-04-25_20h06.38.880,ratings,2022.1.1,Win32,31.24414172
-1.76029934,1.3506,0.992509649,2.8639,0,266,266,400,1,683_a004ad18331da968da5debdd15e1447dd7748750af0bc6c57b844200_circblurint.jpg,-2.91956,2.466524,circularblurringint,JOMO20,2022-04-25_20h06.38.880,ratings,2022.1.1,Win32,31.24414172
1.142322669,1.7463,-1.235955056,2.4668,0,267,267,16,1,39_2fafccaa4dc69045a05845f59c6b3cd2edcf7e0e0c108b24e553afe0_circblurint.jpg,2.022756,0.463548,circularblurringint,JOMO20,2022-04-25_20h06.38.880,ratings,2022.1.1,Win32,31.24414172
1.020599537,1.3579,-1.28277125,1.9355,0,268,268,269,1,431_ab5a1dbbe9292ac7f74e276cdabcd372e2c1f852ff34bf7cc6646ef8_circblurext.jpg,3.102584,0.354334,circularblurringext,JOMO20,2022-04-25_20h06.38.880,ratings,2022.1.1,Win32,31.24414172
-2.659175744,1.2968,1.273409383,2.087,0,269,269,160,1,358_157f8ac929713531a15b1ecf115e7b659cb90e83d675251e368d165f_circblurint.jpg,-3.777776,-0.571428,circularblurringint,JOMO20,2022-04-25_20h06.38.880,ratings,2022.1.1,Win32,31.24414172
-1.273407668,1.1812,1.460674157,1.6998,0,270,270,371,1,616_05a637f5281666f53d4e2ef69351485fc21d629b37ee2006b2076eb6_circblurext.jpg,-2.380952,-0.832364,circularblurringext,JOMO20,2022-04-25_20h06.38.880,ratings,2022.1.1,Win32,31.24414172
1.460674157,1.1951,-2.219101124,2.1534,0,271,271,178,1,368_6507b94d7d0199f14efd3706db30c9c44b96085f84e9cc7792e3e0ae_circblurint.jpg,1.959544,0.400336,circularblurringint,JOMO20,2022-04-25_20h06.38.880,ratings,2022.1.1,Win32,31.24414172
1.217229607,1.3124,-1.507490351,2.0145,0,272,272,428,1,694_7a14b8ab7c564dcb0f628c4de7f6cb54e4c5f6601f774bf167641c37_edges.jpg,1.819588,0.116144,edges,JOMO20,2022-04-25_20h06.38.880,ratings,2022.1.1,Win32,31.24414172
-1.264044944,1.2807,-1.732209452,2.9093,0,273,273,323,1,460_e06b3af7ff2f2bfb5f9b6e3d5dc25b9aaa40b84823fac8fd934621bd_circblurext.jpg,-3.430992,-1.607468,circularblurringext,JOMO20,2022-04-25_20h06.38.880,ratings,2022.1.1,Win32,31.24414172
0.814606742,1.401,-1.825842697,3.0068,0,274,274,300,1,453_54f106fd1d4b65fa4aa347407127fc30d49f791e81aee3a0bbe44489_orig.jpg,2.222224,0.0,original,JOMO20,2022-04-25_20h06.38.880,ratings,2022.1.1,Win32,31.24414172
1.123595506,1.6076,-1.367040913,2.4022,0,275,275,292,1,442_7449d79dae5d652af9b2429872cabdef938646ba024db2f431b3b28d_circblurint.jpg,1.619048,0.126984,circularblurringint,JOMO20,2022-04-25_20h06.38.880,ratings,2022.1.1,Win32,31.24414172
1.77902736,1.1303,-1.329587443,1.7454,0,276,276,568,1,1037_e2eb929a6de79a63ce6cfe5321fcb74a203b134e4094932d90b01d99_circblurint.jpg,2.651956,0.0,circularblurringint,JOMO20,2022-04-25_20h06.38.880,ratings,2022.1.1,Win32,31.24414172
1.292134831,1.3858,-1.301497556,2.1853,0,277,277,51,1,112_b6a4ce721c2e42943d7d8b168751d74cd2f372b1cd4fed5a4404faec_blur.jpg,2.107036,0.505688,blurring,JOMO20,2022-04-25_20h06.38.880,ratings,2022.1.1,Win32,31.24414172
-0.224719101,1.399,-0.636703834,2.345,0,278,278,488,1,818_877aae033c31e3bbca4486321a5307f87cf53c576c546462d3daf194_edges.jpg,-1.277584,0.619436,edges,JOMO20,2022-04-25_20h06.38.880,ratings,2022.1.1,Win32,31.24414172
0.880150098,1.5083,-2.134831461,2.0319,0,279,279,227,1,403_57ac47f43882fc031a6067b1a388c0b2cbe8708dcbd2ff1019932eff_circblurext.jpg,-3.333332,-1.396824,circularblurringext,JOMO20,2022-04-25_20h06.38.880,ratings,2022.1.1,Win32,31.24414172
0.823970323,1.6452,-1.451310576,2.437,0,280,280,154,1,355_00a76f54934d36566dd0e7b091b8aa6a56d8e6b32d349aa578a10b45_circblurint.jpg,2.910052,0.3439152,circularblurringint,JOMO20,2022-04-25_20h06.38.880,ratings,2022.1.1,Win32,31.24414172
-1.292134831,1.4278,0.402622009,2.9878,0,281,281,387,1,646_577760d718dab44c6f04d77408c5644a120065ce07a9503957d0850a_blur.jpg,-2.690668,2.61324,blurring,JOMO20,2022-04-25_20h06.38.880,ratings,2022.1.1,Win32,31.24414172
-0.47752809,2.3218,-0.749063385,4.7303,0,282,282,103,1,284_cdcbd54fc995081ac95c8b2c37a19cebb341f61a8eb268cee1623492_bw.jpg,-1.015872,2.095236,blackwhite,JOMO20,2022-04-25_20h06.38.880,ratings,2022.1.1,Win32,31.24414172
1.217229607,1.2659,-1.43258427,1.8846,0,283,283,120,1,347_27f0e47c2722605b950ccf9fa900f78271e4c3c874064ab5dacac160_orig.jpg,1.838948,0.3097172,original,JOMO20,2022-04-25_20h06.38.880,ratings,2022.1.1,Win32,31.24414172
0.749064242,1.3177,-2.153557767,1.8065,0,284,284,252,1,416_5eb54976bb41ce2a6d129ef985f792e716f010fb9b69b15f50f5d2db_orig.jpg,-2.58766,2.602972,original,JOMO20,2022-04-25_20h06.38.880,ratings,2022.1.1,Win32,31.24414172
0.383895703,1.1527,-1.451310576,1.6553,0,285,285,96,1,267_792043debad81ce271cec5b3c3bd9d264efc13f362bec9c7a3f72fe7_orig.jpg,1.980616,0.2107036,original,JOMO20,2022-04-25_20h06.38.880,ratings,2022.1.1,Win32,31.24414172
-0.187265632,2.2545,-1.694755983,3.6564,0,286,286,592,1,1228_557412d34d6a70b7c5d222e030aa485b351a4574e8ba1a3112d1d13d_circblurint.jpg,2.137444,0.703464,circularblurringint,JOMO20,2022-04-25_20h06.38.880,ratings,2022.1.1,Win32,31.24414172
-2.415730337,1.7168,1.029963118,2.6174,0,287,287,272,1,434_ba36d91204d7e578001f6a545d7501e65d209554def5a3c8b7583825_edges.jpg,-3.523808,1.428572,edges,JOMO20,2022-04-25_20h06.38.880,ratings,2022.1.1,Win32,31.24414172
0.720974354,1.5425,-1.666666095,2.0804,0,288,288,65,1,156_08e8cf8f04630e9213e610580de73f51572d1d589878648700bae4dc_circblurext.jpg,2.222224,0.0,circularblurringext,JOMO20,2022-04-25_20h06.38.880,ratings,2022.1.1,Win32,31.24414172
-0.299625182,1.301,-1.76029934,2.6455,0,289,289,205,1,381_5935a9f9796adce2f1539af6c75bcdc0c80d847a2ce9b77cf59b7672_bw.jpg,-1.327432,-0.442476,blackwhite,JOMO20,2022-04-25_20h06.38.880,ratings,2022.1.1,Win32,31.24414172
1.507491208,1.7833,-1.797752809,3.6247,0,290,290,1,1,13_771f4fcf0a212d25d6a78565e7f34cc5ddd823e7afbdc77ef063326e_bw.jpg,2.190476,0.0,blackwhite,JOMO20,2022-04-25_20h06.38.880,ratings,2022.1.1,Win32,31.24414172
-1.161048118,1.7566,-1.292134831,2.7766,0,291,291,437,1,694_f80f33613b268beffd6c044537cf3b44a84683d6e889bc37b8e9c34b_circblurext.jpg,-0.3785616,3.34728,circularblurringext,JOMO20,2022-04-25_20h06.38.880,ratings,2022.1.1,Win32,31.24414172
1.797752809,2.5854,-1.114231924,4.1103,0,292,292,186,1,369_c99797771115d7627d4abe3415f814497288f91a7be1a04c17c776b9_orig.jpg,3.619824,-0.174216,original,JOMO20,2022-04-25_20h06.38.880,ratings,2022.1.1,Win32,31.24414172
-2.996254396,1.5471,1.095505618,2.4109,0,293,293,242,1,411_adfd0d5782129756321ff671d0cfb712528504c66c863df11aabd1e7_edges.jpg,-3.392332,-1.369576,edges,JOMO20,2022-04-25_20h06.38.880,ratings,2022.1.1,Win32,31.24414172
1.404494382,2.6776,-1.441946994,3.9874,0,294,294,411,1,687_e3b018945792a574962235c88c553b7c318c75eec2596478e8a7b877_blur.jpg,3.63918,-0.42586,blurring,JOMO20,2022-04-25_20h06.38.880,ratings,2022.1.1,Win32,31.24414172
0.842696629,5.1098,-1.573033708,6.3737,0,295,295,151,1,355_00a76f54934d36566dd0e7b091b8aa6a56d8e6b32d349aa578a10b45_bw.jpg,2.910052,0.3439152,blackwhite,JOMO20,2022-04-25_20h06.38.880,ratings,2022.1.1,Win32,31.24414172
-2.340823399,1.1646,-1.179775281,2.2018,0,296,296,510,1,858_2f6539ee36aba48c38dc716d4f7c3ae93367d6ddf23ab41745d4172c_orig.jpg,0.0623832,0.176752,original,JOMO20,2022-04-25_20h06.38.880,ratings,2022.1.1,Win32,31.24414172
-1.3951308,1.5006,0.674157303,2.2577,0,297,297,138,1,353_44e285740cb41818482ac93fc5fbd72c18029444a1d7506c9fc053e7_orig.jpg,-3.232676,-0.87108,original,JOMO20,2022-04-25_20h06.38.880,ratings,2022.1.1,Win32,31.24414172
1.348314607,2.2703,-2.228463848,3.0439,0,298,298,352,1,498_305b74cdc4784d9d25e72724302e5402def70177ea31ae7e25fab66b_circblurint.jpg,3.04762,-0.444444,circularblurringint,JOMO20,2022-04-25_20h06.38.880,ratings,2022.1.1,Win32,31.24414172
-2.209737542,2.5142,0.514981559,4.8019,0,299,299,372,1,620_9674719009d75dcfeaed7f15932c43e1fd1af5e25d47b8aadd61efe2_orig.jpg,-0.561364,1.142084,original,JOMO20,2022-04-25_20h06.38.880,ratings,2022.1.1,Win32,31.24414172
1.376404494,1.7249,-1.320224719,3.9601,0,300,300,79,1,242_85283f6935a89812ab229dcad9ba184529c9242ac3106d768ecf3ab3_bw.jpg,2.14918,-0.2949852,blackwhite,JOMO20,2022-04-25_20h06.38.880,ratings,2022.1.1,Win32,31.24414172
-0.842696629,5.4479,-1.797752809,8.8432,0,301,301,557,1,1014_a5c212ca979d482cf94c2db7697aba75620391a64b030ab7ad2bbecf_circblurext.jpg,-3.174604,-1.374372,circularblurringext,JOMO20,2022-04-25_20h06.38.880,ratings,2022.1.1,Win32,31.24414172
1.235955056,1.104,-1.058052149,1.7478,0,302,302,413,1,687_e3b018945792a574962235c88c553b7c318c75eec2596478e8a7b877_circblurext.jpg,3.63918,-0.42586,circularblurringext,JOMO20,2022-04-25_20h06.38.880,ratings,2022.1.1,Win32,31.24414172
0.252808989,1.2388,-0.571160477,1.8302,0,303,303,219,1,396_208259ea431d47bb7f3946213eb099834eb119756ce304ad473d4d9f_blur.jpg,2.857144,-0.3809524,blurring,JOMO20,2022-04-25_20h06.38.880,ratings,2022.1.1,Win32,31.24414172
0.992509649,1.0761,-1.020598679,1.6143,0,304,304,268,1,431_ab5a1dbbe9292ac7f74e276cdabcd372e2c1f852ff34bf7cc6646ef8_circblurint.jpg,3.102584,0.354334,circularblurringint,JOMO20,2022-04-25_20h06.38.880,ratings,2022.1.1,Win32,31.24414172
1.900749635,1.1551,-1.72284587,1.6396,0,305,305,228,1,407_578d31d32e806706dde2563213f130b90e621abfed0e47ecabd85d27_orig.jpg,3.5873,-0.444444,original,JOMO20,2022-04-25_20h06.38.880,ratings,2022.1.1,Win32,31.24414172
0.655430997,1.2464,-1.54494382,1.8503,0,306,306,42,1,92_5d20d78a8e57e628c6930676473a4e0a485e715841efd6286c660020_orig.jpg,2.126984,0.0,original,JOMO20,2022-04-25_20h06.38.880,ratings,2022.1.1,Win32,31.24414172
1.441948709,4.8801,-0.112359551,5.3719,0,307,307,431,1,694_7a14b8ab7c564dcb0f628c4de7f6cb54e4c5f6601f774bf167641c37_circblurext.jpg,1.819588,0.116144,circularblurringext,JOMO20,2022-04-25_20h06.38.880,ratings,2022.1.1,Win32,31.24414172
0.692884467,1.1486,0.065543357,1.6384,0,308,308,480,1,759_95e1c46ed9a337414d5c8eada8fa8b9632e18751f5ce6ed587806e91_orig.jpg,2.126984,0.0,original,JOMO20,2022-04-25_20h06.38.880,ratings,2022.1.1,Win32,31.24414172
0.664794579,1.8275,-1.039325843,2.2781,0,309,309,140,1,353_44e285740cb41818482ac93fc5fbd72c18029444a1d7506c9fc053e7_edges.jpg,-3.232676,-0.87108,edges,JOMO20,2022-04-25_20h06.38.880,ratings,2022.1.1,Win32,31.24414172
1.554308259,1.2345,-0.252808989,1.8861,0,310,310,337,1,492_a1a4d288d3bc486c83c3b6a835c42891989f5ba781633932298a7676_bw.jpg,3.406892,-0.44522,blackwhite,JOMO20,2022-04-25_20h06.38.880,ratings,2022.1.1,Win32,31.24414172
-0.0655425,4.0817,-1.404494382,5.4022,0,311,311,597,1,1239_cee00457f4cfb76a407b12fd5ad714d440a4614c1e5467ee16caf618_blur.jpg,-0.03174604,0.190476,blurring,JOMO20,2022-04-25_20h06.38.880,ratings,2022.1.1,Win32,31.24414172
-1.198501587,5.9771,-1.020598679,6.7286,0,312,312,308,1,455_34a7d8167619d110206c369e3f7dce8a3f99db763a9d8e2b956501d3_edges.jpg,-2.526412,-0.3827896,edges,JOMO20,2022-04-25_20h06.38.880,ratings,2022.1.1,Win32,31.24414172
0.58988764,1.394,-1.114231924,2.0889,0,313,313,168,1,365_45a719cabbc9aa308c4fcb30d529489c6966ac4073874af84f665c61_orig.jpg,2.507936,-1.968252,original,JOMO20,2022-04-25_20h06.38.880,ratings,2022.1.1,Win32,31.24414172
-1.853932584,2.5263,-0.711609915,4.229,0,314,314,281,1,440_9bf7e8609729bf888835168834da6c3ff30b75d0d4f36e2ee6918bcc_circblurext.jpg,-2.284164,2.710028,circularblurringext,JOMO20,2022-04-25_20h06.38.880,ratings,2022.1.1,Win32,31.24414172
1.161049832,1.2445,-1.198501587,1.7378,0,315,315,423,1,692_e3e3bf88684fbbcdb9849a4147f9e2fcd39b0f083554a829aca4e9fa_blur.jpg,-0.44522,3.135888,blurring,JOMO20,2022-04-25_20h06.38.880,ratings,2022.1.1,Win32,31.24414172
-0.140449438,1.7861,-1.28277125,2.7925,0,316,316,545,1,1005_b980c0747d20935bc63cc27a9e05ce2ff5bae98f859872ec48edd7f5_circblurext.jpg,3.428572,-0.476192,circularblurringext,JOMO20,2022-04-25_20h06.38.880,ratings,2022.1.1,Win32,31.24414172
1.807117248,2.4476,-1.647939789,3.0447,0,317,317,41,1,82_43f4d5aec7c2e5bd495473f6708a0f2d47c9fe34e1fe9436646cb036_circblurext.jpg,2.022756,0.505688,circularblurringext,JOMO20,2022-04-25_20h06.38.880,ratings,2022.1.1,Win32,31.24414172
1.610488034,1.6474,0.093633245,2.9734,0,318,318,499,1,854_081a8409e4d6d10923b2dedcc16a3fca405fcd602e55a20d84cac69d_bw.jpg,3.088264,1.21538,blackwhite,JOMO20,2022-04-25_20h06.38.880,ratings,2022.1.1,Win32,31.24414172
1.123595506,5.1479,-0.973782486,5.7588,0,319,319,159,1,358_157f8ac929713531a15b1ecf115e7b659cb90e83d675251e368d165f_blur.jpg,-3.777776,-0.571428,blurring,JOMO20,2022-04-25_20h06.38.880,ratings,2022.1.1,Win32,31.24414172
0.702247191,5.0445,-1.310861137,6.2564,0,320,320,198,1,380_34772591c787182a37724027eac6948ebc9d4064f6a601d23b923b8e_orig.jpg,2.222224,-0.063492,original,JOMO20,2022-04-25_20h06.38.880,ratings,2022.1.1,Win32,31.24414172
-0.337078652,5.9876,-0.168539326,6.5837,0,321,321,92,1,258_d26019382777d2159a974a7654923e71598135ce2cd710cea1f92865_edges.jpg,3.497684,-0.61104,edges,JOMO20,2022-04-25_20h06.38.880,ratings,2022.1.1,Win32,31.24414172
-0.608613946,1.3609,0.196629213,2.3358,0,322,322,27,1,59_8568373b727f29d67ba6ce4c360dd918c8b08b13495fca56bdda5e82_blur.jpg,2.064896,0.505688,blurring,JOMO20,2022-04-25_20h06.38.880,ratings,2022.1.1,Win32,31.24414172
-0.056179775,1.3032,-0.936329017,2.1839,0,323,323,491,1,818_877aae033c31e3bbca4486321a5307f87cf53c576c546462d3daf194_circblurext.jpg,-1.277584,0.619436,circularblurringext,JOMO20,2022-04-25_20h06.38.880,ratings,2022.1.1,Win32,31.24414172
1.722847585,1.3515,-1.13295823,1.8648,0,324,324,230,1,407_578d31d32e806706dde2563213f130b90e621abfed0e47ecabd85d27_edges.jpg,3.5873,-0.444444,edges,JOMO20,2022-04-25_20h06.38.880,ratings,2022.1.1,Win32,31.24414172
1.676030534,1.1885,-0.702247191,1.7149,0,325,325,456,1,720_483c541c48959a597fcf44320941afaf8b7695105f90d65b5f6b30f2_orig.jpg,2.158732,-0.2539684,original,JOMO20,2022-04-25_20h06.38.880,ratings,2022.1.1,Win32,31.24414172
0.702247191,1.3235,-1.039325843,2.2626,0,326,326,291,1,442_7449d79dae5d652af9b2429872cabdef938646ba024db2f431b3b28d_blur.jpg,1.619048,0.126984,blurring,JOMO20,2022-04-25_20h06.38.880,ratings,2022.1.1,Win32,31.24414172
1.769662921,4.1895,-1.404494382,4.8016,0,327,327,390,1,663_aaf52107fe3a86392530d88b34e86f9d2b6820714cad98d1e3c2cb67_orig.jpg,2.58766,0.0918696,original,JOMO20,2022-04-25_20h06.38.880,ratings,2022.1.1,Win32,31.24414172
1.423221545,1.1029,-1.254681362,1.6727,0,328,328,7,1,28_6318543b74eeb646a1735477ebc023fdc9ac3849bc0db1957c272a26_bw.jpg,2.811244,-0.74584,blackwhite,JOMO20,2022-04-25_20h06.38.880,ratings,2022.1.1,Win32,31.24414172
0.458801784,1.8024,-1.301497556,3.1291,0,329,329,483,1,759_95e1c46ed9a337414d5c8eada8fa8b9632e18751f5ce6ed587806e91_blur.jpg,2.126984,0.0,blurring,JOMO20,2022-04-25_20h06.38.880,ratings,2022.1.1,Win32,31.24414172
-1.498126769,1.9068,-1.058052149,2.5749,0,330,330,89,1,243_beddb302dcb21071d88c8d2cab07002050d36b3001ef28f89389fa56_circblurext.jpg,-0.3450656,-0.2070392,circularblurringext,JOMO20,2022-04-25_20h06.38.880,ratings,2022.1.1,Win32,31.24414172
-3.005617978,1.2397,-1.385767219,2.0345,0,331,331,496,1,824_b1d91cc824ce0d3d383d3147da88d3d6dbaf6be918bab79e3ec8f501_circblurint.jpg,-3.645176,-1.432784,circularblurringint,JOMO20,2022-04-25_20h06.38.880,ratings,2022.1.1,Win32,31.24414172
-1.835205421,1.7484,-0.95505618,4.5732,0,332,332,377,1,620_9674719009d75dcfeaed7f15932c43e1fd1af5e25d47b8aadd61efe2_circblurext.jpg,-0.561364,1.142084,circularblurringext,JOMO20,2022-04-25_20h06.38.880,ratings,2022.1.1,Win32,31.24414172
1.273409383,1.7387,-1.666666095,2.8249,0,333,333,189,1,369_c99797771115d7627d4abe3415f814497288f91a7be1a04c17c776b9_blur.jpg,3.619824,-0.174216,blurring,JOMO20,2022-04-25_20h06.38.880,ratings,2022.1.1,Win32,31.24414172
-0.80524316,2.6332,-1.06741573,3.3391,0,334,334,553,1,1014_a5c212ca979d482cf94c2db7697aba75620391a64b030ab7ad2bbecf_bw.jpg,-3.174604,-1.374372,blackwhite,JOMO20,2022-04-25_20h06.38.880,ratings,2022.1.1,Win32,31.24414172
1.338951882,1.1787,-1.13295823,1.7339,0,335,335,378,1,640_0ddb4981a5f5842ed5b4f7ef941be53779189df5e718b1fc5475ad80_orig.jpg,2.571428,-1.873016,original,JOMO20,2022-04-25_20h06.38.880,ratings,2022.1.1,Win32,31.24414172
-0.252808989,2.2993,-1.161048118,3.3788,0,336,336,595,1,1239_cee00457f4cfb76a407b12fd5ad714d440a4614c1e5467ee16caf618_bw.jpg,-0.03174604,0.190476,blackwhite,JOMO20,2022-04-25_20h06.38.880,ratings,2022.1.1,Win32,31.24414172
0.674157303,1.3161,-1.029962261,1.8713,0,337,337,199,1,380_34772591c787182a37724027eac6948ebc9d4064f6a601d23b923b8e_bw.jpg,2.222224,-0.063492,blackwhite,JOMO20,2022-04-25_20h06.38.880,ratings,2022.1.1,Win32,31.24414172
-0.505617978,1.8841,-0.365168539,2.8178,0,338,338,302,1,453_54f106fd1d4b65fa4aa347407127fc30d49f791e81aee3a0bbe44489_edges.jpg,2.222224,0.0,edges,JOMO20,2022-04-25_20h06.38.880,ratings,2022.1.1,Win32,31.24414172
0.945693455,1.2332,-1.413857106,1.8682,0,339,339,451,1,716_2ab64478147184c4df720a52cf621875addc9007cb2967e4a9a88909_bw.jpg,2.428484,0.0,blackwhite,JOMO20,2022-04-25_20h06.38.880,ratings,2022.1.1,Win32,31.24414172
-0.646067416,1.3005,-1.526216657,1.9566,0,340,340,361,1,508_a7a9519cdc7aad6844030f4e6cd96cffd1b9c49b71e20ea52789bda2_bw.jpg,-3.000388,-1.29694,blackwhite,JOMO20,2022-04-25_20h06.38.880,ratings,2022.1.1,Win32,31.24414172
-0.411984733,1.5646,-0.430711039,2.3472,0,341,341,158,1,358_157f8ac929713531a15b1ecf115e7b659cb90e83d675251e368d165f_edges.jpg,-3.777776,-0.571428,edges,JOMO20,2022-04-25_20h06.38.880,ratings,2022.1.1,Win32,31.24414172
0.514981559,1.6277,-1.264044944,2.1103,0,342,342,203,1,380_34772591c787182a37724027eac6948ebc9d4064f6a601d23b923b8e_circblurext.jpg,2.222224,-0.063492,circularblurringext,JOMO20,2022-04-25_20h06.38.880,ratings,2022.1.1,Win32,31.24414172
-2.209737542,1.1816,-1.310861137,3.2419,0,343,343,587,1,1225_59c67a821456f2cce3e5acf66d7f00076bd02caffc984c1eb0df794e_circblurext.jpg,-0.444444,3.809524,circularblurringext,JOMO20,2022-04-25_20h06.38.880,ratings,2022.1.1,Win32,31.24414172
1.048689424,1.2508,-1.470036882,1.6836,0,344,344,469,1,741_2b218fb015e3da83db73cacdb52e61e0c2534c1fe255bb1c5c74d47f_bw.jpg,3.140096,0.448584,blackwhite,JOMO20,2022-04-25_20h06.38.880,ratings,2022.1.1,Win32,31.24414172
-2.705991938,1.0889,0.102996826,2.4254,0,345,345,331,1,482_a1cd28915c5044c018195ab0fff10dcc95e385246b045a7cd4463ff7_bw.jpg,-3.361852,-1.555612,blackwhite,JOMO20,2022-04-25_20h06.38.880,ratings,2022.1.1,Win32,31.24414172
-3.117977528,1.6416,0.814606742,2.9217,0,346,346,322,1,460_e06b3af7ff2f2bfb5f9b6e3d5dc25b9aaa40b84823fac8fd934621bd_circblurint.jpg,-3.430992,-1.607468,circularblurringint,JOMO20,2022-04-25_20h06.38.880,ratings,2022.1.1,Win32,31.24414172
-1.292134831,2.1895,-0.318351488,2.845,0,347,347,489,1,818_877aae033c31e3bbca4486321a5307f87cf53c576c546462d3daf194_blur.jpg,-1.277584,0.619436,blurring,JOMO20,2022-04-25_20h06.38.880,ratings,2022.1.1,Win32,31.24414172
1.114232781,1.1791,-1.647939789,1.7064,0,348,348,4,1,13_771f4fcf0a212d25d6a78565e7f34cc5ddd823e7afbdc77ef063326e_circblurint.jpg,2.190476,0.0,circularblurringint,JOMO20,2022-04-25_20h06.38.880,ratings,2022.1.1,Win32,31.24414172
-1.619849902,1.1292,-0.702247191,1.7778,0,349,349,343,1,494_5c6c3b85a2734a43c24bfe337d42ffcc82b7347227804d01c784cef4_bw.jpg,0.03871468,0.0,blackwhite,JOMO20,2022-04-25_20h06.38.880,ratings,2022.1.1,Win32,31.24414172
-0.393258427,1.3168,-0.318351488,2.2843,0,350,350,464,1,736_bb85db1bcda8eb34299aa5791ac65a0a7c343266eb2d6e6e328ec0e1_edges.jpg,3.650792,-0.03174604,edges,JOMO20,2022-04-25_20h06.38.880,ratings,2022.1.1,Win32,31.24414172
0.926966292,1.2558,-1.601123596,2.1811,0,351,351,547,1,1010_06d15f44b979c086561137000ec070ba4cd479856f92840a7850b2bf_bw.jpg,0.189786,-0.189786,blackwhite,JOMO20,2022-04-25_20h06.38.880,ratings,2022.1.1,Win32,31.24414172
0.617977528,1.7419,-1.685393258,2.2058,0,352,352,474,1,748_e519892faa7c772a0afaf9eeff36cf0e411574027ab3d9aa4947a048_orig.jpg,-1.813112,3.307432,original,JOMO20,2022-04-25_20h06.38.880,ratings,2022.1.1,Win32,31.24414172
0.964419761,1.2141,-1.170411699,1.6548,0,353,353,408,1,687_e3b018945792a574962235c88c553b7c318c75eec2596478e8a7b877_orig.jpg,3.63918,-0.42586,original,JOMO20,2022-04-25_20h06.38.880,ratings,2022.1.1,Win32,31.24414172
-1.750935758,1.6242,-1.413857106,2.0514,0,354,354,388,1,646_577760d718dab44c6f04d77408c5644a120065ce07a9503957d0850a_circblurint.jpg,-2.690668,2.61324,circularblurringint,JOMO20,2022-04-25_20h06.38.880,ratings,2022.1.1,Win32,31.24414172
-2.893258427,1.2405,-1.582396432,1.6492,0,355,355,537,1,986_a77edb21e78bc3a6aa7406517824596b3496ad6c657b6befb84cf370_blur.jpg,-3.906316,-0.60496,blurring,JOMO20,2022-04-25_20h06.38.880,ratings,2022.1.1,Win32,31.24414172
-2.340823399,1.5212,1.011235955,2.0801,0,356,356,188,1,369_c99797771115d7627d4abe3415f814497288f91a7be1a04c17c776b9_edges.jpg,3.619824,-0.174216,edges,JOMO20,2022-04-25_20h06.38.880,ratings,2022.1.1,Win32,31.24414172
-2.481272837,1.386,-0.795879578,2.4878,0,357,357,126,1,349_18d92ef5c21ca70a3dd237aad251594e1688bbe01d8cff37b89c46b8_orig.jpg,-2.74874,-1.258228,original,JOMO20,2022-04-25_20h06.38.880,ratings,2022.1.1,Win32,31.24414172
0.898876404,1.3425,-1.507490351,1.7858,0,358,358,150,1,355_00a76f54934d36566dd0e7b091b8aa6a56d8e6b32d349aa578a10b45_orig.jpg,2.910052,0.3439152,original,JOMO20,2022-04-25_20h06.38.880,ratings,2022.1.1,Win32,31.24414172
1.573033708,1.2488,-1.825842697,1.7509,0,359,359,145,1,354_e46c3ec6fb00773f64f2bcd212385f253c389808fe724b7cf8611051_bw.jpg,2.018292,0.0,blackwhite,JOMO20,2022-04-25_20h06.38.880,ratings,2022.1.1,Win32,31.24414172
1.441948709,1.3863,-1.498126769,1.998,0,360,360,146,1,354_e46c3ec6fb00773f64f2bcd212385f253c389808fe724b7cf8611051_edges.jpg,2.018292,0.0,edges,JOMO20,2022-04-25_20h06.38.880,ratings,2022.1.1,Win32,31.24414172
0.964419761,1.8817,-1.338951025,2.8727,0,361,361,116,1,332_4d584229bdae2e1782f77f0e953e528f13c3dfa79b4b94736c0310fa_edges.jpg,3.157348,0.483092,edges,JOMO20,2022-04-25_20h06.38.880,ratings,2022.1.1,Win32,31.24414172
-1.011235955,1.2152,-1.06741573,1.8014,0,362,362,94,1,258_d26019382777d2159a974a7654923e71598135ce2cd710cea1f92865_circblurint.jpg,3.497684,-0.61104,circularblurringint,JOMO20,2022-04-25_20h06.38.880,ratings,2022.1.1,Win32,31.24414172
-1.029962261,1.8562,-0.842696629,2.3088,0,363,363,368,1,616_05a637f5281666f53d4e2ef69351485fc21d629b37ee2006b2076eb6_edges.jpg,-2.380952,-0.832364,edges,JOMO20,2022-04-25_20h06.38.880,ratings,2022.1.1,Win32,31.24414172
0.636704691,1.3596,-1.104868342,2.0552,0,364,364,125,1,347_27f0e47c2722605b950ccf9fa900f78271e4c3c874064ab5dacac160_circblurext.jpg,1.838948,0.3097172,circularblurringext,JOMO20,2022-04-25_20h06.38.880,ratings,2022.1.1,Win32,31.24414172
-3.501872373,1.3799,-1.816479115,1.8183,0,365,365,495,1,824_b1d91cc824ce0d3d383d3147da88d3d6dbaf6be918bab79e3ec8f501_blur.jpg,-3.645176,-1.432784,blurring,JOMO20,2022-04-25_20h06.38.880,ratings,2022.1.1,Win32,31.24414172
-3.164793722,1.238,-0.833333048,1.8703,0,366,366,240,1,411_adfd0d5782129756321ff671d0cfb712528504c66c863df11aabd1e7_orig.jpg,-3.392332,-1.369576,original,JOMO20,2022-04-25_20h06.38.880,ratings,2022.1.1,Win32,31.24414172
-1.451310576,5.278,-0.973782486,2.8951,0,367,367,59,1,137_0e6a04243c0a42a5e2528a2d181255ca2a4b7bd6e7978c5c2059c69f_circblurext.jpg,-0.95238,2.095236,circularblurringext,JOMO20,2022-04-25_20h06.38.880,ratings,2022.1.1,Win32,31.24414172
1.376404494,1.0727,-1.423220688,1.5138,0,368,368,229,1,407_578d31d32e806706dde2563213f130b90e621abfed0e47ecabd85d27_bw.jpg,3.5873,-0.444444,blackwhite,JOMO20,2022-04-25_20h06.38.880,ratings,2022.1.1,Win32,31.24414172
-0.674157303,3.8131,-1.048688567,4.3591,0,369,369,215,1,394_8e3a0cb945144d53bd1ace04b6256237ed9dcbbd9cb83f8a4886b0e6_circblurext.jpg,-2.593884,2.651956,circularblurringext,JOMO20,2022-04-25_20h06.38.880,ratings,2022.1.1,Win32,31.24414172
1.254682219,1.1429,-1.254681362,1.6969,0,370,370,25,1,59_8568373b727f29d67ba6ce4c360dd918c8b08b13495fca56bdda5e82_bw.jpg,2.064896,0.505688,blackwhite,JOMO20,2022-04-25_20h06.38.880,ratings,2022.1.1,Win32,31.24414172
0.973783343,1.2044,-1.479400463,1.6717,0,371,371,28,1,59_8568373b727f29d67ba6ce4c360dd918c8b08b13495fca56bdda5e82_circblurint.jpg,2.064896,0.505688,circularblurringint,JOMO20,2022-04-25_20h06.38.880,ratings,2022.1.1,Win32,31.24414172
-2.921348315,1.3286,0.636704691,2.2748,0,372,372,404,1,686_6745b57686ad5d1bd6cf3e7ed5bc0243a154f8939e88e30321dfcfdb_edges.jpg,-1.523808,3.650792,edges,JOMO20,2022-04-25_20h06.38.880,ratings,2022.1.1,Win32,31.24414172
-3.071160477,1.2194,0.964419761,1.789,0,373,373,492,1,824_b1d91cc824ce0d3d383d3147da88d3d6dbaf6be918bab79e3ec8f501_orig.jpg,-3.645176,-1.432784,original,JOMO20,2022-04-25_20h06.38.880,ratings,2022.1.1,Win32,31.24414172
-0.318351488,2.2925,0.355805815,3.6168,0,374,374,325,1,468_8b69b13120daebadd8a4a3166e1419f2404395cba231307a4efa9fde_bw.jpg,2.031744,0.2539684,blackwhite,JOMO20,2022-04-25_20h06.38.880,ratings,2022.1.1,Win32,31.24414172
0.730337079,1.8537,-1.020598679,2.3995,0,375,375,541,1,1005_b980c0747d20935bc63cc27a9e05ce2ff5bae98f859872ec48edd7f5_bw.jpg,3.428572,-0.476192,blackwhite,JOMO20,2022-04-25_20h06.38.880,ratings,2022.1.1,Win32,31.24414172
1.423221545,1.7143,-1.573033708,2.1516,0,376,376,177,1,368_6507b94d7d0199f14efd3706db30c9c44b96085f84e9cc7792e3e0ae_blur.jpg,1.959544,0.400336,blurring,JOMO20,2022-04-25_20h06.38.880,ratings,2022.1.1,Win32,31.24414172
0.711610773,1.5775,-1.423220688,2.514,0,377,377,257,1,416_5eb54976bb41ce2a6d129ef985f792e716f010fb9b69b15f50f5d2db_circblurext.jpg,-2.58766,2.602972,circularblurringext,JOMO20,2022-04-25_20h06.38.880,ratings,2022.1.1,Win32,31.24414172
-1.404494382,1.2618,-1.095505618,2.8032,0,378,378,414,1,692_7d7eaf20e6de8956f0fca7500ace97a8599aa8b605a7d690cdb28724_orig.jpg,-2.063492,-1.26984,original,JOMO20,2022-04-25_20h06.38.880,ratings,2022.1.1,Win32,31.24414172
-0.383894845,1.8568,-0.552434171,5.5016,0,379,379,434,1,694_f80f33613b268beffd6c044537cf3b44a84683d6e889bc37b8e9c34b_edges.jpg,-0.3785616,3.34728,edges,JOMO20,2022-04-25_20h06.38.880,ratings,2022.1.1,Win32,31.24414172
-2.23782743,1.081,-0.234081826,1.5553,0,380,380,247,1,414_0187bdf7007109b487865b6a9d388997a6817acf052a6a7cdd5b39d9_bw.jpg,-2.786708,-1.133056,blackwhite,JOMO20,2022-04-25_20h06.38.880,ratings,2022.1.1,Win32,31.24414172
-1.3951308,1.2989,-0.496254396,2.0367,0,381,381,556,1,1014_a5c212ca979d482cf94c2db7697aba75620391a64b030ab7ad2bbecf_circblurint.jpg,-3.174604,-1.374372,circularblurringint,JOMO20,2022-04-25_20h06.38.880,ratings,2022.1.1,Win32,31.24414172
1.235955056,1.8193,-1.273407668,2.5978,0,382,382,181,1,369_98db62a1bdabfd1bc551180da6658005b461585cd21614633cf76470_bw.jpg,2.190476,-0.03174604,blackwhite,JOMO20,2022-04-25_20h06.38.880,ratings,2022.1.1,Win32,31.24414172
-1.207865169,1.2654,0.131086714,1.7827,0,383,383,487,1,818_877aae033c31e3bbca4486321a5307f87cf53c576c546462d3daf194_bw.jpg,-1.277584,0.619436,blackwhite,JOMO20,2022-04-25_20h06.38.880,ratings,2022.1.1,Win32,31.24414172
-0.777153272,1.3779,0.280898876,1.8935,0,384,384,193,1,379_eeaa6d9bf5a4ef205dc48bc505cf3a7f24ea86e99af9b371e03602a7_bw.jpg,-0.3926308,2.88936,blackwhite,JOMO20,2022-04-25_20h06.38.880,ratings,2022.1.1,Win32,31.24414172
-1.076778455,1.5408,0.131086714,2.735,0,385,385,314,1,459_46e25de472bb056cb470716d30937415f7344bfc4354d6eb710d8c9f_edges.jpg,0.03174604,0.0,edges,JOMO20,2022-04-25_20h06.38.880,ratings,2022.1.1,Win32,31.24414172
1.086142894,1.2414,-1.104868342,1.6678,0,386,386,100,1,267_792043debad81ce271cec5b3c3bd9d264efc13f362bec9c7a3f72fe7_circblurint.jpg,1.980616,0.2107036,circularblurringint,JOMO20,2022-04-25_20h06.38.880,ratings,2022.1.1,Win32,31.24414172
-2.818351488,1.3515,0.430711896,3.9934,0,387,387,403,1,686_6745b57686ad5d1bd6cf3e7ed5bc0243a154f8939e88e30321dfcfdb_bw.jpg,-1.523808,3.650792,blackwhite,JOMO20,2022-04-25_20h06.38.880,ratings,2022.1.1,Win32,31.24414172
-2.471910112,1.2567,0.795880436,2.6054,0,388,388,571,1,1039_d64da8480fc6e94dcdc513237d600570ae0b9fe48795ac6a8b2d29a7_bw.jpg,-2.507936,-1.142856,blackwhite,JOMO20,2022-04-25_20h06.38.880,ratings,2022.1.1,Win32,31.24414172
1.273409383,1.5411,-1.273407668,3.304,0,389,389,394,1,663_aaf52107fe3a86392530d88b34e86f9d2b6820714cad98d1e3c2cb67_circblurint.jpg,2.58766,0.0918696,circularblurringint,JOMO20,2022-04-25_20h06.38.880,ratings,2022.1.1,Win32,31.24414172
-2.752808989,1.1381,-1.310861137,1.6768,0,390,390,359,1,500_3b520c7f352afa1a9f8c07e56cc0588cdc04d25ff6e7b602b5e280cb_circblurext.jpg,-0.8328,3.11766,circularblurringext,JOMO20,2022-04-25_20h06.38.880,ratings,2022.1.1,Win32,31.24414172
0.514981559,1.3305,-1.329587443,2.3765,0,391,391,543,1,1005_b980c0747d20935bc63cc27a9e05ce2ff5bae98f859872ec48edd7f5_blur.jpg,3.428572,-0.476192,blurring,JOMO20,2022-04-25_20h06.38.880,ratings,2022.1.1,Win32,31.24414172
0.77715413,1.0776,-0.964418904,1.5945,0,392,392,123,1,347_27f0e47c2722605b950ccf9fa900f78271e4c3c874064ab5dacac160_blur.jpg,1.838948,0.3097172,blurring,JOMO20,2022-04-25_20h06.38.880,ratings,2022.1.1,Win32,31.24414172
1.385768933,1.2802,-0.852059354,1.8833,0,393,393,31,1,60_ad52063167538de24f94d7dfd04808cb94cf8f426c40871d2f126505_bw.jpg,2.158732,0.0,blackwhite,JOMO20,2022-04-25_20h06.38.880,ratings,2022.1.1,Win32,31.24414172
0.711610773,1.6446,-0.786516854,2.1677,0,394,394,475,1,748_e519892faa7c772a0afaf9eeff36cf0e411574027ab3d9aa4947a048_bw.jpg,-1.813112,3.307432,blackwhite,JOMO20,2022-04-25_20h06.38.880,ratings,2022.1.1,Win32,31.24414172
1.095505618,1.1488,-1.06741573,1.5821,0,395,395,466,1,736_bb85db1bcda8eb34299aa5791ac65a0a7c343266eb2d6e6e328ec0e1_circblurint.jpg,3.650792,-0.03174604,circularblurringint,JOMO20,2022-04-25_20h06.38.880,ratings,2022.1.1,Win32,31.24414172
1.975656574,0.9783,-1.657303371,1.8649,0,396,396,70,1,172_c641c6c56ca6b594b773084e1363c852abdb65f988d7ff802ee503f2_circblurint.jpg,0.379572,0.01725328,circularblurringint,JOMO20,2022-04-25_20h06.38.880,ratings,2022.1.1,Win32,31.24414172
0.852060211,1.3619,-1.638576208,1.8511,0,397,397,482,1,759_95e1c46ed9a337414d5c8eada8fa8b9632e18751f5ce6ed587806e91_edges.jpg,2.126984,0.0,edges,JOMO20,2022-04-25_20h06.38.880,ratings,2022.1.1,Win32,31.24414172
-2.481272837,1.5786,1.048689424,2.6007,0,398,398,584,1,1225_59c67a821456f2cce3e5acf66d7f00076bd02caffc984c1eb0df794e_edges.jpg,-0.444444,3.809524,edges,JOMO20,2022-04-25_20h06.38.880,ratings,2022.1.1,Win32,31.24414172
1.020599537,1.0695,-2.02247191,1.919,0,399,399,78,1,242_85283f6935a89812ab229dcad9ba184529c9242ac3106d768ecf3ab3_orig.jpg,2.14918,-0.2949852,original,JOMO20,2022-04-25_20h06.38.880,ratings,2022.1.1,Win32,31.24414172
0.308988764,1.3522,-0.758426966,1.9014,0,400,400,22,1,48_2cc936b2483ab2944c9158e163342b874ef6c1492fd8fca08c0e096e_circblurint.jpg,-1.264224,-0.779604,circularblurringint,JOMO20,2022-04-25_20h06.38.880,ratings,2022.1.1,Win32,31.24414172
-1.189138005,4.358,-0.449438202,3.2896,0,401,401,420,1,692_e3e3bf88684fbbcdb9849a4147f9e2fcd39b0f083554a829aca4e9fa_orig.jpg,-0.44522,3.135888,original,JOMO20,2022-04-25_20h06.38.880,ratings,2022.1.1,Win32,31.24414172
-1.535580239,1.6131,-0.926966292,2.6997,0,402,402,384,1,646_577760d718dab44c6f04d77408c5644a120065ce07a9503957d0850a_orig.jpg,-2.690668,2.61324,original,JOMO20,2022-04-25_20h06.38.880,ratings,2022.1.1,Win32,31.24414172
-1.170411699,2.0063,-1.601123596,2.7163,0,403,403,212,1,394_8e3a0cb945144d53bd1ace04b6256237ed9dcbbd9cb83f8a4886b0e6_edges.jpg,-2.593884,2.651956,edges,JOMO20,2022-04-25_20h06.38.880,ratings,2022.1.1,Win32,31.24414172
-2.453182949,1.6778,-0.80524316,2.1486,0,404,404,157,1,358_157f8ac929713531a15b1ecf115e7b659cb90e83d675251e368d165f_bw.jpg,-3.777776,-0.571428,blackwhite,JOMO20,2022-04-25_20h06.38.880,ratings,2022.1.1,Win32,31.24414172
0.41198559,1.6,-1.076778455,3.8306,0,405,405,327,1,468_8b69b13120daebadd8a4a3166e1419f2404395cba231307a4efa9fde_blur.jpg,2.031744,0.2539684,blurring,JOMO20,2022-04-25_20h06.38.880,ratings,2022.1.1,Win32,31.24414172
1.198502444,1.1183,-1.657303371,1.5745,0,406,406,30,1,60_ad52063167538de24f94d7dfd04808cb94cf8f426c40871d2f126505_orig.jpg,2.158732,0.0,original,JOMO20,2022-04-25_20h06.38.880,ratings,2022.1.1,Win32,31.24414172
0.505617978,2.2239,-0.711609915,4.7913,0,407,407,589,1,1228_557412d34d6a70b7c5d222e030aa485b351a4574e8ba1a3112d1d13d_bw.jpg,2.137444,0.703464,blackwhite,JOMO20,2022-04-25_20h06.38.880,ratings,2022.1.1,Win32,31.24414172
0.440075478,1.7558,-1.301497556,2.192,0,408,408,90,1,258_d26019382777d2159a974a7654923e71598135ce2cd710cea1f92865_orig.jpg,3.497684,-0.61104,original,JOMO20,2022-04-25_20h06.38.880,ratings,2022.1.1,Win32,31.24414172
-1.095505618,1.3322,-0.95505618,2.3739,0,409,409,58,1,137_0e6a04243c0a42a5e2528a2d181255ca2a4b7bd6e7978c5c2059c69f_circblurint.jpg,-0.95238,2.095236,circularblurringint,JOMO20,2022-04-25_20h06.38.880,ratings,2022.1.1,Win32,31.24414172
0.561797753,2.9648,-0.992508792,3.4255,0,410,410,441,1,700_59cb565f134f1afd066d7b6d936c6511b7cb76de0e9cbb5ce15124ad_blur.jpg,0.0,0.0,blurring,JOMO20,2022-04-25_20h06.38.880,ratings,2022.1.1,Win32,31.24414172
0.983146067,1.4263,-0.318351488,2.217,0,411,411,579,1,1061_665178b9cb0bc869cc2e2b68def4838db04e66f9531098fb75875a09_blur.jpg,0.3492064,-0.3174604,blurring,JOMO20,2022-04-25_20h06.38.880,ratings,2022.1.1,Win32,31.24414172
0.543071447,3.1278,-0.908239129,3.7566,0,412,412,152,1,355_00a76f54934d36566dd0e7b091b8aa6a56d8e6b32d349aa578a10b45_edges.jpg,2.910052,0.3439152,edges,JOMO20,2022-04-25_20h06.38.880,ratings,2022.1.1,Win32,31.24414172
0.421348315,1.2566,-1.114231924,1.6949,0,413,413,183,1,369_98db62a1bdabfd1bc551180da6658005b461585cd21614633cf76470_blur.jpg,2.190476,-0.03174604,blurring,JOMO20,2022-04-25_20h06.38.880,ratings,2022.1.1,Win32,31.24414172
0.936329874,1.0924,-1.582396432,2.0619,0,414,414,470,1,741_2b218fb015e3da83db73cacdb52e61e0c2534c1fe255bb1c5c74d47f_edges.jpg,3.140096,0.448584,edges,JOMO20,2022-04-25_20h06.38.880,ratings,2022.1.1,Win32,31.24414172
-0.571160477,1.3193,-0.608613946,2.0915,0,415,415,262,1,416_8a1f874e0057d67a4e6955865ba88b2d8ce2c8b4469589307687a723_circblurint.jpg,-1.753336,3.088264,circularblurringint,JOMO20,2022-04-25_20h06.38.880,ratings,2022.1.1,Win32,31.24414172
-1.807115533,1.6696,0.102996826,2.2306,0,416,416,374,1,620_9674719009d75dcfeaed7f15932c43e1fd1af5e25d47b8aadd61efe2_edges.jpg,-0.561364,1.142084,edges,JOMO20,2022-04-25_20h06.38.880,ratings,2022.1.1,Win32,31.24414172
0.084269663,1.4338,-0.524344284,2.0126,0,417,417,599,1,1239_cee00457f4cfb76a407b12fd5ad714d440a4614c1e5467ee16caf618_circblurext.jpg,-0.03174604,0.190476,circularblurringext,JOMO20,2022-04-25_20h06.38.880,ratings,2022.1.1,Win32,31.24414172
1.395131658,1.0853,-1.207865169,1.6353,0,418,418,520,1,860_05c4e22518a30d3d2add458a8fc6488f87b9b02dd8e385ded939f025_circblurint.jpg,1.955092,0.3097172,circularblurringint,JOMO20,2022-04-25_20h06.38.880,ratings,2022.1.1,Win32,31.24414172
1.413858821,1.1076,-1.142321812,1.5792,0,419,419,340,1,492_a1a4d288d3bc486c83c3b6a835c42891989f5ba781633932298a7676_circblurint.jpg,3.406892,-0.44522,circularblurringint,JOMO20,2022-04-25_20h06.38.880,ratings,2022.1.1,Win32,31.24414172
-1.526216657,1.5142,-0.739699803,2.9196,0,420,420,486,1,818_877aae033c31e3bbca4486321a5307f87cf53c576c546462d3daf194_orig.jpg,-1.277584,0.619436,original,JOMO20,2022-04-25_20h06.38.880,ratings,2022.1.1,Win32,31.24414172
0.870786517,1.4013,-0.168539326,1.9034,0,421,421,527,1,877_cab3efed0c9ff4552037df6c1ea4ea9713f915c94592a14dbf2799da_circblurext.jpg,3.174604,0.3174604,circularblurringext,JOMO20,2022-04-25_20h06.38.880,ratings,2022.1.1,Win32,31.24414172
-0.973782486,1.5243,-0.149812163,2.0808,0,422,422,239,1,410_9633c4ff6e8888fcfca59a60ca86e9606d3e0736500a254101bdf295_circblurext.jpg,-0.3677892,2.981028,circularblurringext,JOMO20,2022-04-25_20h06.38.880,ratings,2022.1.1,Win32,31.24414172
-1.666666095,1.3085,-0.018726306,2.1747,0,423,423,366,1,616_05a637f5281666f53d4e2ef69351485fc21d629b37ee2006b2076eb6_orig.jpg,-2.380952,-0.832364,original,JOMO20,2022-04-25_20h06.38.880,ratings,2022.1.1,Win32,31.24414172
0.720974354,1.278,-0.54307059,1.9504,0,424,424,412,1,687_e3b018945792a574962235c88c553b7c318c75eec2596478e8a7b877_circblurint.jpg,3.63918,-0.42586,circularblurringint,JOMO20,2022-04-25_20h06.38.880,ratings,2022.1.1,Win32,31.24414172
-0.889512823,1.359,0.234082683,2.7116,0,425,425,593,1,1228_557412d34d6a70b7c5d222e030aa485b351a4574e8ba1a3112d1d13d_circblurext.jpg,2.137444,0.703464,circularblurringext,JOMO20,2022-04-25_20h06.38.880,ratings,2022.1.1,Win32,31.24414172
1.338951882,1.1292,-1.72284587,2.1416,0,426,426,49,1,112_b6a4ce721c2e42943d7d8b168751d74cd2f372b1cd4fed5a4404faec_bw.jpg,2.107036,0.505688,blackwhite,JOMO20,2022-04-25_20h06.38.880,ratings,2022.1.1,Win32,31.24414172
-0.749063385,1.3689,-0.280898876,1.789,0,427,427,213,1,394_8e3a0cb945144d53bd1ace04b6256237ed9dcbbd9cb83f8a4886b0e6_blur.jpg,-2.593884,2.651956,blurring,JOMO20,2022-04-25_20h06.38.880,ratings,2022.1.1,Win32,31.24414172
-2.986890814,1.3215,0.702247191,2.2189,0,428,428,163,1,361_b5541309527dc3c2422f45a95ebb0ed32005e6fe10d0489a1ff1fbdc_bw.jpg,-3.987612,-0.2516452,blackwhite,JOMO20,2022-04-25_20h06.38.880,ratings,2022.1.1,Win32,31.24414172
0.945693455,1.5562,-0.627340252,2.0326,0,429,429,8,1,28_6318543b74eeb646a1735477ebc023fdc9ac3849bc0db1957c272a26_edges.jpg,2.811244,-0.74584,edges,JOMO20,2022-04-25_20h06.38.880,ratings,2022.1.1,Win32,31.24414172
0.814606742,1.8085,-1.273407668,3.1577,0,430,430,98,1,267_792043debad81ce271cec5b3c3bd9d264efc13f362bec9c7a3f72fe7_edges.jpg,1.980616,0.2107036,edges,JOMO20,2022-04-25_20h06.38.880,ratings,2022.1.1,Win32,31.24414172
1.376404494,1.235,-1.460674157,1.6524,0,431,431,289,1,442_7449d79dae5d652af9b2429872cabdef938646ba024db2f431b3b28d_bw.jpg,1.619048,0.126984,blackwhite,JOMO20,2022-04-25_20h06.38.880,ratings,2022.1.1,Win32,31.24414172
1.947566686,1.5924,-1.264044944,2.195,0,432,432,518,1,860_05c4e22518a30d3d2add458a8fc6488f87b9b02dd8e385ded939f025_edges.jpg,1.955092,0.3097172,edges,JOMO20,2022-04-25_20h06.38.880,ratings,2022.1.1,Win32,31.24414172
-0.168539326,1.6953,-0.299625182,2.674,0,433,433,555,1,1014_a5c212ca979d482cf94c2db7697aba75620391a64b030ab7ad2bbecf_blur.jpg,-3.174604,-1.374372,blurring,JOMO20,2022-04-25_20h06.38.880,ratings,2022.1.1,Win32,31.24414172
0.365168539,1.3139,-1.13295823,1.9083,0,434,434,576,1,1061_665178b9cb0bc869cc2e2b68def4838db04e66f9531098fb75875a09_orig.jpg,0.3492064,-0.3174604,original,JOMO20,2022-04-25_20h06.38.880,ratings,2022.1.1,Win32,31.24414172
0.926966292,1.4858,-1.217227893,1.9796,0,435,435,285,1,440_dc6413e2b65369ee2587f4d85621742fe4ca87392d0a8ad2ea7d94e3_blur.jpg,-3.016216,1.69404,blurring,JOMO20,2022-04-25_20h06.38.880,ratings,2022.1.1,Win32,31.24414172
-2.172284073,1.2877,-0.383894845,2.6767,0,436,436,273,1,434_ba36d91204d7e578001f6a545d7501e65d209554def5a3c8b7583825_blur.jpg,-3.523808,1.428572,blurring,JOMO20,2022-04-25_20h06.38.880,ratings,2022.1.1,Win32,31.24414172
1.001873231,1.5234,-0.861422935,2.0117,0,437,437,508,1,855_66d893451dfd1e7615132071c6c8a82b02dc2b37781cd89400883b26_circblurint.jpg,2.69484,0.2143624,circularblurringint,JOMO20,2022-04-25_20h06.38.880,ratings,2022.1.1,Win32,31.24414172
-3.080524059,1.1838,0.608614804,2.3752,0,438,438,497,1,824_b1d91cc824ce0d3d383d3147da88d3d6dbaf6be918bab79e3ec8f501_circblurext.jpg,-3.645176,-1.432784,circularblurringext,JOMO20,2022-04-25_20h06.38.880,ratings,2022.1.1,Win32,31.24414172
1.30149927,1.1895,-1.179775281,1.7586,0,439,439,232,1,407_578d31d32e806706dde2563213f130b90e621abfed0e47ecabd85d27_circblurint.jpg,3.5873,-0.444444,circularblurringint,JOMO20,2022-04-25_20h06.38.880,ratings,2022.1.1,Win32,31.24414172
0.749064242,1.5801,-0.823969466,2.2162,0,440,440,458,1,720_483c541c48959a597fcf44320941afaf8b7695105f90d65b5f6b30f2_edges.jpg,2.158732,-0.2539684,edges,JOMO20,2022-04-25_20h06.38.880,ratings,2022.1.1,Win32,31.24414172
0.749064242,1.2166,-1.179775281,1.645,0,441,441,21,1,48_2cc936b2483ab2944c9158e163342b874ef6c1492fd8fca08c0e096e_blur.jpg,-1.264224,-0.779604,blurring,JOMO20,2022-04-25_20h06.38.880,ratings,2022.1.1,Win32,31.24414172
1.001873231,1.16,-1.06741573,1.5805,0,442,442,577,1,1061_665178b9cb0bc869cc2e2b68def4838db04e66f9531098fb75875a09_bw.jpg,0.3492064,-0.3174604,blackwhite,JOMO20,2022-04-25_20h06.38.880,ratings,2022.1.1,Win32,31.24414172
-3.146067416,1.3301,-0.009362724,1.9345,0,443,443,539,1,986_a77edb21e78bc3a6aa7406517824596b3496ad6c657b6befb84cf370_circblurext.jpg,-3.906316,-0.60496,circularblurringext,JOMO20,2022-04-25_20h06.38.880,ratings,2022.1.1,Win32,31.24414172
1.320224719,6.742,-1.863295309,7.3897,0,444,444,67,1,172_c641c6c56ca6b594b773084e1363c852abdb65f988d7ff802ee503f2_bw.jpg,0.379572,0.01725328,blackwhite,JOMO20,2022-04-25_20h06.38.880,ratings,2022.1.1,Win32,31.24414172
0.833333905,4.8486,0.065543357,7.6775,0,445,445,467,1,736_bb85db1bcda8eb34299aa5791ac65a0a7c343266eb2d6e6e328ec0e1_circblurext.jpg,3.650792,-0.03174604,circularblurringext,JOMO20,2022-04-25_20h06.38.880,ratings,2022.1.1,Win32,31.24414172
0.571161334,2.7985,-0.889512823,3.7527,0,446,446,549,1,1010_06d15f44b979c086561137000ec070ba4cd479856f92840a7850b2bf_blur.jpg,0.189786,-0.189786,blurring,JOMO20,2022-04-25_20h06.38.880,ratings,2022.1.1,Win32,31.24414172
