valence_slider.response,valence_slider.rt,arousal_slider.response,arousal_slider.rt,trials.thisRepN,trials.thisTrialN,trials.thisN,trials.thisIndex,trials.ran,img_name,vm,am,manipulation,participant,session,date,expName,psychopyVersion,OS,frameRate
0.458801498,7.275,-2.34082397,13.8,0,0,0,102,1,284_cdcbd54fc995081ac95c8b2c37a19cebb341f61a8eb268cee1623492_orig.jpg,-1.015872,2.095236,original,maba09021998,001,2022-03-29_10h03.45.236,ratings,2022.1.1,Win32,60.09615385
1.451310861,5.885,-1.554307116,10.926,0,1,1,150,1,355_00a76f54934d36566dd0e7b091b8aa6a56d8e6b32d349aa578a10b45_orig.jpg,2.910052,0.3439152,original,maba09021998,001,2022-03-29_10h03.45.236,ratings,2022.1.1,Win32,60.09615385
-0.458801498,4.638,-1.647940075,12.33,0,2,2,438,1,700_59cb565f134f1afd066d7b6d936c6511b7cb76de0e9cbb5ce15124ad_orig.jpg,0.0,0.0,original,maba09021998,001,2022-03-29_10h03.45.236,ratings,2022.1.1,Win32,60.09615385
-2.387640449,14.849,-2.612359551,11.751,0,3,3,440,1,700_59cb565f134f1afd066d7b6d936c6511b7cb76de0e9cbb5ce15124ad_edges.jpg,0.0,0.0,edges,maba09021998,001,2022-03-29_10h03.45.236,ratings,2022.1.1,Win32,60.09615385
-1.507490637,7.055,-1.647940075,11.664,0,4,4,572,1,1039_d64da8480fc6e94dcdc513237d600570ae0b9fe48795ac6a8b2d29a7_edges.jpg,-2.507936,-1.142856,edges,maba09021998,001,2022-03-29_10h03.45.236,ratings,2022.1.1,Win32,60.09615385
0.543071161,5.371,0.608614232,14.063,0,5,5,3,1,13_771f4fcf0a212d25d6a78565e7f34cc5ddd823e7afbdc77ef063326e_blur.jpg,2.190476,0.0,blurring,maba09021998,001,2022-03-29_10h03.45.236,ratings,2022.1.1,Win32,60.09615385
2.200374532,3.257,-1.423220974,11.698,0,6,6,12,1,39_2fafccaa4dc69045a05845f59c6b3cd2edcf7e0e0c108b24e553afe0_orig.jpg,2.022756,0.463548,original,maba09021998,001,2022-03-29_10h03.45.236,ratings,2022.1.1,Win32,60.09615385
-2.265917603,10.776,-0.009363296,13.175,0,7,7,574,1,1039_d64da8480fc6e94dcdc513237d600570ae0b9fe48795ac6a8b2d29a7_circblurint.jpg,-2.507936,-1.142856,circularblurringint,maba09021998,001,2022-03-29_10h03.45.236,ratings,2022.1.1,Win32,60.09615385
1.254681648,3.336,0.880149813,7.132,0,8,8,92,1,258_d26019382777d2159a974a7654923e71598135ce2cd710cea1f92865_edges.jpg,3.497684,-0.61104,edges,maba09021998,001,2022-03-29_10h03.45.236,ratings,2022.1.1,Win32,60.09615385
1.029962547,3.893,1.722846442,5.071,0,9,9,117,1,332_4d584229bdae2e1782f77f0e953e528f13c3dfa79b4b94736c0310fa_blur.jpg,3.157348,0.483092,blurring,maba09021998,001,2022-03-29_10h03.45.236,ratings,2022.1.1,Win32,60.09615385
0.065543071,4.645,-2.162921348,5.744,0,10,10,192,1,379_eeaa6d9bf5a4ef205dc48bc505cf3a7f24ea86e99af9b371e03602a7_orig.jpg,-0.3926308,2.88936,original,maba09021998,001,2022-03-29_10h03.45.236,ratings,2022.1.1,Win32,60.09615385
1.573033708,1.827,-1.235955056,4.219,0,11,11,202,1,380_34772591c787182a37724027eac6948ebc9d4064f6a601d23b923b8e_circblurint.jpg,2.222224,-0.063492,circularblurringint,maba09021998,001,2022-03-29_10h03.45.236,ratings,2022.1.1,Win32,60.09615385
-3.426966292,2.092,-2.041198502,5.336,0,12,12,205,1,381_5935a9f9796adce2f1539af6c75bcdc0c80d847a2ce9b77cf59b7672_bw.jpg,-1.327432,-0.442476,blackwhite,maba09021998,001,2022-03-29_10h03.45.236,ratings,2022.1.1,Win32,60.09615385
-0.411985019,2.31,0.215355805,5.164,0,13,13,126,1,349_18d92ef5c21ca70a3dd237aad251594e1688bbe01d8cff37b89c46b8_orig.jpg,-2.74874,-1.258228,original,maba09021998,001,2022-03-29_10h03.45.236,ratings,2022.1.1,Win32,60.09615385
-1.086142322,3.239,-1.788389513,5.035,0,14,14,134,1,349_8809a67686d34844c915d7700e2ea72ad1c02ae232ae0d3cc0e458d4_edges.jpg,-3.619048,-0.2857144,edges,maba09021998,001,2022-03-29_10h03.45.236,ratings,2022.1.1,Win32,60.09615385
-2.331460674,1.642,-0.514981273,3.756,0,15,15,239,1,410_9633c4ff6e8888fcfca59a60ca86e9606d3e0736500a254101bdf295_circblurext.jpg,-0.3677892,2.981028,circularblurringext,maba09021998,001,2022-03-29_10h03.45.236,ratings,2022.1.1,Win32,60.09615385
-1.947565543,3.224,0.580524345,4.24,0,16,16,257,1,416_5eb54976bb41ce2a6d129ef985f792e716f010fb9b69b15f50f5d2db_circblurext.jpg,-2.58766,2.602972,circularblurringext,maba09021998,001,2022-03-29_10h03.45.236,ratings,2022.1.1,Win32,60.09615385
0.664794007,4.608,0.63670412,6.351,0,17,17,154,1,355_00a76f54934d36566dd0e7b091b8aa6a56d8e6b32d349aa578a10b45_circblurint.jpg,2.910052,0.3439152,circularblurringint,maba09021998,001,2022-03-29_10h03.45.236,ratings,2022.1.1,Win32,60.09615385
1.722846442,1.376,1.123595506,2.841,0,18,18,586,1,1225_59c67a821456f2cce3e5acf66d7f00076bd02caffc984c1eb0df794e_circblurint.jpg,-0.444444,3.809524,circularblurringint,maba09021998,001,2022-03-29_10h03.45.236,ratings,2022.1.1,Win32,60.09615385
-1.376404494,3.423,-0.505617978,4.238,0,19,19,262,1,416_8a1f874e0057d67a4e6955865ba88b2d8ce2c8b4469589307687a723_circblurint.jpg,-1.753336,3.088264,circularblurringint,maba09021998,001,2022-03-29_10h03.45.236,ratings,2022.1.1,Win32,60.09615385
0.805243446,3.656,-1.38576779,4.434,0,20,20,119,1,332_4d584229bdae2e1782f77f0e953e528f13c3dfa79b4b94736c0310fa_circblurext.jpg,3.157348,0.483092,circularblurringext,maba09021998,001,2022-03-29_10h03.45.236,ratings,2022.1.1,Win32,60.09615385
-2.397003745,1.909,-0.037453184,2.689,0,21,21,167,1,361_b5541309527dc3c2422f45a95ebb0ed32005e6fe10d0489a1ff1fbdc_circblurext.jpg,-3.987612,-0.2516452,circularblurringext,maba09021998,001,2022-03-29_10h03.45.236,ratings,2022.1.1,Win32,60.09615385
1.43258427,2.359,2.808988764,3.456,0,22,22,70,1,172_c641c6c56ca6b594b773084e1363c852abdb65f988d7ff802ee503f2_circblurint.jpg,0.379572,0.01725328,circularblurringint,maba09021998,001,2022-03-29_10h03.45.236,ratings,2022.1.1,Win32,60.09615385
1.301498127,4.175,-0.983146067,5.105,0,23,23,252,1,416_5eb54976bb41ce2a6d129ef985f792e716f010fb9b69b15f50f5d2db_orig.jpg,-2.58766,2.602972,original,maba09021998,001,2022-03-29_10h03.45.236,ratings,2022.1.1,Win32,60.09615385
-2.265917603,2.679,0.664794007,5.922,0,24,24,324,1,468_8b69b13120daebadd8a4a3166e1419f2404395cba231307a4efa9fde_orig.jpg,2.031744,0.2539684,original,maba09021998,001,2022-03-29_10h03.45.236,ratings,2022.1.1,Win32,60.09615385
-0.43071161,4.355,-1.629213483,5.402,0,25,25,442,1,700_59cb565f134f1afd066d7b6d936c6511b7cb76de0e9cbb5ce15124ad_circblurint.jpg,0.0,0.0,circularblurringint,maba09021998,001,2022-03-29_10h03.45.236,ratings,2022.1.1,Win32,60.09615385
-0.561797753,4.281,-1.320224719,5.274,0,26,26,486,1,818_877aae033c31e3bbca4486321a5307f87cf53c576c546462d3daf194_orig.jpg,-1.277584,0.619436,original,maba09021998,001,2022-03-29_10h03.45.236,ratings,2022.1.1,Win32,60.09615385
-1.235955056,15.353,1.779026217,17.25,0,27,27,573,1,1039_d64da8480fc6e94dcdc513237d600570ae0b9fe48795ac6a8b2d29a7_blur.jpg,-2.507936,-1.142856,blurring,maba09021998,001,2022-03-29_10h03.45.236,ratings,2022.1.1,Win32,60.09615385
0.702247191,4.223,0.552434457,4.887,0,28,28,116,1,332_4d584229bdae2e1782f77f0e953e528f13c3dfa79b4b94736c0310fa_edges.jpg,3.157348,0.483092,edges,maba09021998,001,2022-03-29_10h03.45.236,ratings,2022.1.1,Win32,60.09615385
-1.367041199,1.808,-0.243445693,2.589,0,29,29,89,1,243_beddb302dcb21071d88c8d2cab07002050d36b3001ef28f89389fa56_circblurext.jpg,-0.3450656,-0.2070392,circularblurringext,maba09021998,001,2022-03-29_10h03.45.236,ratings,2022.1.1,Win32,60.09615385
2.144194757,7.985,1.376404494,9.101,0,30,30,79,1,242_85283f6935a89812ab229dcad9ba184529c9242ac3106d768ecf3ab3_bw.jpg,2.14918,-0.2949852,blackwhite,maba09021998,001,2022-03-29_10h03.45.236,ratings,2022.1.1,Win32,60.09615385
-1.451310861,3.8,0.140449438,4.397,0,31,31,488,1,818_877aae033c31e3bbca4486321a5307f87cf53c576c546462d3daf194_edges.jpg,-1.277584,0.619436,edges,maba09021998,001,2022-03-29_10h03.45.236,ratings,2022.1.1,Win32,60.09615385
1.338951311,1.724,0.917602996,2.655,0,32,32,199,1,380_34772591c787182a37724027eac6948ebc9d4064f6a601d23b923b8e_bw.jpg,2.222224,-0.063492,blackwhite,maba09021998,001,2022-03-29_10h03.45.236,ratings,2022.1.1,Win32,60.09615385
1.207865169,7.925,2.18164794,8.852,0,33,33,149,1,354_e46c3ec6fb00773f64f2bcd212385f253c389808fe724b7cf8611051_circblurext.jpg,2.018292,0.0,circularblurringext,maba09021998,001,2022-03-29_10h03.45.236,ratings,2022.1.1,Win32,60.09615385
2.65917603,1.68,0.805243446,2.922,0,34,34,395,1,663_aaf52107fe3a86392530d88b34e86f9d2b6820714cad98d1e3c2cb67_circblurext.jpg,2.58766,0.0918696,circularblurringext,maba09021998,001,2022-03-29_10h03.45.236,ratings,2022.1.1,Win32,60.09615385
0.177902622,4.887,2.865168539,4.277,0,35,35,458,1,720_483c541c48959a597fcf44320941afaf8b7695105f90d65b5f6b30f2_edges.jpg,2.158732,-0.2539684,edges,maba09021998,001,2022-03-29_10h03.45.236,ratings,2022.1.1,Win32,60.09615385
0.627340824,3.605,-1.104868914,4.319,0,36,36,530,1,915_dc9fd40a3b5d64a180833a7bac86e7556c24f681f473fe255e41f936_edges.jpg,-3.09294,-0.918696,edges,maba09021998,001,2022-03-29_10h03.45.236,ratings,2022.1.1,Win32,60.09615385
1.554307116,2.095,0.674157303,3.156,0,37,37,232,1,407_578d31d32e806706dde2563213f130b90e621abfed0e47ecabd85d27_circblurint.jpg,3.5873,-0.444444,circularblurringint,maba09021998,001,2022-03-29_10h03.45.236,ratings,2022.1.1,Win32,60.09615385
1.488764045,1.728,-0.486891386,2.389,0,38,38,267,1,431_ab5a1dbbe9292ac7f74e276cdabcd372e2c1f852ff34bf7cc6646ef8_blur.jpg,3.102584,0.354334,blurring,maba09021998,001,2022-03-29_10h03.45.236,ratings,2022.1.1,Win32,60.09615385
-1.104868914,3.07,0.533707865,6.302,0,39,39,229,1,407_578d31d32e806706dde2563213f130b90e621abfed0e47ecabd85d27_bw.jpg,3.5873,-0.444444,blackwhite,maba09021998,001,2022-03-29_10h03.45.236,ratings,2022.1.1,Win32,60.09615385
0.140449438,2.968,-2.359550562,4.567,0,40,40,402,1,686_6745b57686ad5d1bd6cf3e7ed5bc0243a154f8939e88e30321dfcfdb_orig.jpg,-1.523808,3.650792,original,maba09021998,001,2022-03-29_10h03.45.236,ratings,2022.1.1,Win32,60.09615385
0.449438202,2.675,-2.331460674,3.69,0,41,41,57,1,137_0e6a04243c0a42a5e2528a2d181255ca2a4b7bd6e7978c5c2059c69f_blur.jpg,-0.95238,2.095236,blurring,maba09021998,001,2022-03-29_10h03.45.236,ratings,2022.1.1,Win32,60.09615385
-2.509363296,1.839,-1.891385768,3.356,0,42,42,321,1,460_e06b3af7ff2f2bfb5f9b6e3d5dc25b9aaa40b84823fac8fd934621bd_blur.jpg,-3.430992,-1.607468,blurring,maba09021998,001,2022-03-29_10h03.45.236,ratings,2022.1.1,Win32,60.09615385
-2.331460674,2.248,-1.666666667,3.981,0,43,43,100,1,267_792043debad81ce271cec5b3c3bd9d264efc13f362bec9c7a3f72fe7_circblurint.jpg,1.980616,0.2107036,circularblurringint,maba09021998,001,2022-03-29_10h03.45.236,ratings,2022.1.1,Win32,60.09615385
1.179775281,6.519,1.91011236,7.388,0,44,44,75,1,236_f645730e1eb06155418c9a571329cc7fa320654fcaaedf1048b5cc11_blur.jpg,2.253968,0.0,blurring,maba09021998,001,2022-03-29_10h03.45.236,ratings,2022.1.1,Win32,60.09615385
1.825842697,1.984,2.509363296,2.567,0,45,45,505,1,855_66d893451dfd1e7615132071c6c8a82b02dc2b37781cd89400883b26_bw.jpg,2.69484,0.2143624,blackwhite,maba09021998,001,2022-03-29_10h03.45.236,ratings,2022.1.1,Win32,60.09615385
0.917602996,7.865,1.928838951,8.552,0,46,46,41,1,82_43f4d5aec7c2e5bd495473f6708a0f2d47c9fe34e1fe9436646cb036_circblurext.jpg,2.022756,0.505688,circularblurringext,maba09021998,001,2022-03-29_10h03.45.236,ratings,2022.1.1,Win32,60.09615385
2.088014981,1.397,2.397003745,2.345,0,47,47,582,1,1225_59c67a821456f2cce3e5acf66d7f00076bd02caffc984c1eb0df794e_orig.jpg,-0.444444,3.809524,original,maba09021998,001,2022-03-29_10h03.45.236,ratings,2022.1.1,Win32,60.09615385
-2.303370787,1.523,-0.58988764,2.638,0,48,48,556,1,1014_a5c212ca979d482cf94c2db7697aba75620391a64b030ab7ad2bbecf_circblurint.jpg,-3.174604,-1.374372,circularblurringint,maba09021998,001,2022-03-29_10h03.45.236,ratings,2022.1.1,Win32,60.09615385
-0.346441948,2.561,-3.211610487,3.21,0,49,49,371,1,616_05a637f5281666f53d4e2ef69351485fc21d629b37ee2006b2076eb6_circblurext.jpg,-2.380952,-0.832364,circularblurringext,maba09021998,001,2022-03-29_10h03.45.236,ratings,2022.1.1,Win32,60.09615385
0.936329588,2.46,-2.602996255,3.32,0,50,50,223,1,403_57ac47f43882fc031a6067b1a388c0b2cbe8708dcbd2ff1019932eff_bw.jpg,-3.333332,-1.396824,blackwhite,maba09021998,001,2022-03-29_10h03.45.236,ratings,2022.1.1,Win32,60.09615385
-2.209737828,2.106,-2.640449438,3.906,0,51,51,298,1,449_9c1e990a3480e5b51430fe76b0188e69ba2468fd6a866b88b2d0dd75_circblurint.jpg,0.095238,0.03174604,circularblurringint,maba09021998,001,2022-03-29_10h03.45.236,ratings,2022.1.1,Win32,60.09615385
0.692883895,3.758,-2.059925094,5.386,0,52,52,152,1,355_00a76f54934d36566dd0e7b091b8aa6a56d8e6b32d349aa578a10b45_edges.jpg,2.910052,0.3439152,edges,maba09021998,001,2022-03-29_10h03.45.236,ratings,2022.1.1,Win32,60.09615385
0.702247191,2.129,-2.584269663,2.825,0,53,53,452,1,716_2ab64478147184c4df720a52cf621875addc9007cb2967e4a9a88909_edges.jpg,2.428484,0.0,edges,maba09021998,001,2022-03-29_10h03.45.236,ratings,2022.1.1,Win32,60.09615385
-0.262172285,2.957,-1.891385768,4.871,0,54,54,271,1,434_ba36d91204d7e578001f6a545d7501e65d209554def5a3c8b7583825_bw.jpg,-3.523808,1.428572,blackwhite,maba09021998,001,2022-03-29_10h03.45.236,ratings,2022.1.1,Win32,60.09615385
1.54494382,2.024,1.470037453,2.557,0,55,55,146,1,354_e46c3ec6fb00773f64f2bcd212385f253c389808fe724b7cf8611051_edges.jpg,2.018292,0.0,edges,maba09021998,001,2022-03-29_10h03.45.236,ratings,2022.1.1,Win32,60.09615385
-1.282771536,1.607,-1.11423221,2.356,0,56,56,263,1,416_8a1f874e0057d67a4e6955865ba88b2d8ce2c8b4469589307687a723_circblurext.jpg,-1.753336,3.088264,circularblurringext,maba09021998,001,2022-03-29_10h03.45.236,ratings,2022.1.1,Win32,60.09615385
2.172284644,4.417,1.713483146,5.037,0,57,57,1,1,13_771f4fcf0a212d25d6a78565e7f34cc5ddd823e7afbdc77ef063326e_bw.jpg,2.190476,0.0,blackwhite,maba09021998,001,2022-03-29_10h03.45.236,ratings,2022.1.1,Win32,60.09615385
1.170411985,14.842,0.196629213,16.323,0,58,58,467,1,736_bb85db1bcda8eb34299aa5791ac65a0a7c343266eb2d6e6e328ec0e1_circblurext.jpg,3.650792,-0.03174604,circularblurringext,maba09021998,001,2022-03-29_10h03.45.236,ratings,2022.1.1,Win32,60.09615385
-1.666666667,14.345,-2.378277154,16.893,0,59,59,557,1,1014_a5c212ca979d482cf94c2db7697aba75620391a64b030ab7ad2bbecf_circblurext.jpg,-3.174604,-1.374372,circularblurringext,maba09021998,001,2022-03-29_10h03.45.236,ratings,2022.1.1,Win32,60.09615385
-0.720973783,2.613,-1.985018727,3.688,0,60,60,334,1,482_a1cd28915c5044c018195ab0fff10dcc95e385246b045a7cd4463ff7_circblurint.jpg,-3.361852,-1.555612,circularblurringint,maba09021998,001,2022-03-29_10h03.45.236,ratings,2022.1.1,Win32,60.09615385
0.683520599,2.072,-0.393258427,2.971,0,61,61,253,1,416_5eb54976bb41ce2a6d129ef985f792e716f010fb9b69b15f50f5d2db_bw.jpg,-2.58766,2.602972,blackwhite,maba09021998,001,2022-03-29_10h03.45.236,ratings,2022.1.1,Win32,60.09615385
0.121722846,3.413,-2.705992509,4.072,0,62,62,482,1,759_95e1c46ed9a337414d5c8eada8fa8b9632e18751f5ce6ed587806e91_edges.jpg,2.126984,0.0,edges,maba09021998,001,2022-03-29_10h03.45.236,ratings,2022.1.1,Win32,60.09615385
-0.505617978,2.747,-2.612359551,3.905,0,63,63,386,1,646_577760d718dab44c6f04d77408c5644a120065ce07a9503957d0850a_edges.jpg,-2.690668,2.61324,edges,maba09021998,001,2022-03-29_10h03.45.236,ratings,2022.1.1,Win32,60.09615385
0.365168539,4.404,-0.973782772,5.073,0,64,64,287,1,440_dc6413e2b65369ee2587f4d85621742fe4ca87392d0a8ad2ea7d94e3_circblurext.jpg,-3.016216,1.69404,circularblurringext,maba09021998,001,2022-03-29_10h03.45.236,ratings,2022.1.1,Win32,60.09615385
-1.573033708,3.037,1.423220974,3.702,0,65,65,292,1,442_7449d79dae5d652af9b2429872cabdef938646ba024db2f431b3b28d_circblurint.jpg,1.619048,0.126984,circularblurringint,maba09021998,001,2022-03-29_10h03.45.236,ratings,2022.1.1,Win32,60.09615385
-1.404494382,2.435,1.217228464,3.143,0,66,66,21,1,48_2cc936b2483ab2944c9158e163342b874ef6c1492fd8fca08c0e096e_blur.jpg,-1.264224,-0.779604,blurring,maba09021998,001,2022-03-29_10h03.45.236,ratings,2022.1.1,Win32,60.09615385
-1.38576779,2.918,-2.003745318,5.844,0,67,67,372,1,620_9674719009d75dcfeaed7f15932c43e1fd1af5e25d47b8aadd61efe2_orig.jpg,-0.561364,1.142084,original,maba09021998,001,2022-03-29_10h03.45.236,ratings,2022.1.1,Win32,60.09615385
0.402621723,3.522,0.945692884,4.094,0,68,68,580,1,1061_665178b9cb0bc869cc2e2b68def4838db04e66f9531098fb75875a09_circblurint.jpg,0.3492064,-0.3174604,circularblurringint,maba09021998,001,2022-03-29_10h03.45.236,ratings,2022.1.1,Win32,60.09615385
0.95505618,1.675,0.805243446,3.539,0,69,69,172,1,365_45a719cabbc9aa308c4fcb30d529489c6966ac4073874af84f665c61_circblurint.jpg,2.507936,-1.968252,circularblurringint,maba09021998,001,2022-03-29_10h03.45.236,ratings,2022.1.1,Win32,60.09615385
1.732209738,3.738,0.936329588,5.453,0,70,70,268,1,431_ab5a1dbbe9292ac7f74e276cdabcd372e2c1f852ff34bf7cc6646ef8_circblurint.jpg,3.102584,0.354334,circularblurringint,maba09021998,001,2022-03-29_10h03.45.236,ratings,2022.1.1,Win32,60.09615385
2.02247191,2.241,2.677902622,3.543,0,71,71,178,1,368_6507b94d7d0199f14efd3706db30c9c44b96085f84e9cc7792e3e0ae_circblurint.jpg,1.959544,0.400336,circularblurringint,maba09021998,001,2022-03-29_10h03.45.236,ratings,2022.1.1,Win32,60.09615385
2.116104869,1.525,3.052434457,2.125,0,72,72,18,1,48_2cc936b2483ab2944c9158e163342b874ef6c1492fd8fca08c0e096e_orig.jpg,-1.264224,-0.779604,original,maba09021998,001,2022-03-29_10h03.45.236,ratings,2022.1.1,Win32,60.09615385
0.374531835,4.754,2.134831461,5.272,0,73,73,6,1,28_6318543b74eeb646a1735477ebc023fdc9ac3849bc0db1957c272a26_orig.jpg,2.811244,-0.74584,original,maba09021998,001,2022-03-29_10h03.45.236,ratings,2022.1.1,Win32,60.09615385
-0.121722846,4.205,-1.91011236,3.089,0,74,74,421,1,692_e3e3bf88684fbbcdb9849a4147f9e2fcd39b0f083554a829aca4e9fa_bw.jpg,-0.44522,3.135888,blackwhite,maba09021998,001,2022-03-29_10h03.45.236,ratings,2022.1.1,Win32,60.09615385
0.252808989,1.593,-0.917602996,2.09,0,75,75,173,1,365_45a719cabbc9aa308c4fcb30d529489c6966ac4073874af84f665c61_circblurext.jpg,2.507936,-1.968252,circularblurringext,maba09021998,001,2022-03-29_10h03.45.236,ratings,2022.1.1,Win32,60.09615385
-1.245318352,3.305,-1.488764045,4.485,0,76,76,405,1,686_6745b57686ad5d1bd6cf3e7ed5bc0243a154f8939e88e30321dfcfdb_blur.jpg,-1.523808,3.650792,blurring,maba09021998,001,2022-03-29_10h03.45.236,ratings,2022.1.1,Win32,60.09615385
1.151685393,1.308,1.460674157,2.409,0,77,77,124,1,347_27f0e47c2722605b950ccf9fa900f78271e4c3c874064ab5dacac160_circblurint.jpg,1.838948,0.3097172,circularblurringint,maba09021998,001,2022-03-29_10h03.45.236,ratings,2022.1.1,Win32,60.09615385
0.280898876,1.758,-1.301498127,2.27,0,78,78,168,1,365_45a719cabbc9aa308c4fcb30d529489c6966ac4073874af84f665c61_orig.jpg,2.507936,-1.968252,original,maba09021998,001,2022-03-29_10h03.45.236,ratings,2022.1.1,Win32,60.09615385
1.001872659,1.908,1.142322097,2.469,0,79,79,39,1,82_43f4d5aec7c2e5bd495473f6708a0f2d47c9fe34e1fe9436646cb036_blur.jpg,2.022756,0.505688,blurring,maba09021998,001,2022-03-29_10h03.45.236,ratings,2022.1.1,Win32,60.09615385
0.767790262,1.758,-2.219101124,2.362,0,80,80,109,1,293_3dfdfafc0c6a54b2da7453750ac281f7718c0b3337b0a74c4563d6bd_bw.jpg,-2.574524,2.632596,blackwhite,maba09021998,001,2022-03-29_10h03.45.236,ratings,2022.1.1,Win32,60.09615385
0.196629213,2.227,-2.771535581,3.308,0,81,81,282,1,440_dc6413e2b65369ee2587f4d85621742fe4ca87392d0a8ad2ea7d94e3_orig.jpg,-3.016216,1.69404,original,maba09021998,001,2022-03-29_10h03.45.236,ratings,2022.1.1,Win32,60.09615385
-0.365168539,2.823,-2.734082397,4.041,0,82,82,64,1,156_08e8cf8f04630e9213e610580de73f51572d1d589878648700bae4dc_circblurint.jpg,2.222224,0.0,circularblurringint,maba09021998,001,2022-03-29_10h03.45.236,ratings,2022.1.1,Win32,60.09615385
-1.132958801,3.958,-2.715355805,4.728,0,83,83,217,1,396_208259ea431d47bb7f3946213eb099834eb119756ce304ad473d4d9f_bw.jpg,2.857144,-0.3809524,blackwhite,maba09021998,001,2022-03-29_10h03.45.236,ratings,2022.1.1,Win32,60.09615385
-1.582397004,1.657,-2.565543071,2.325,0,84,84,286,1,440_dc6413e2b65369ee2587f4d85621742fe4ca87392d0a8ad2ea7d94e3_circblurint.jpg,-3.016216,1.69404,circularblurringint,maba09021998,001,2022-03-29_10h03.45.236,ratings,2022.1.1,Win32,60.09615385
-2.883895131,2.925,-2.593632959,6.301,0,85,85,532,1,915_dc9fd40a3b5d64a180833a7bac86e7556c24f681f473fe255e41f936_circblurint.jpg,-3.09294,-0.918696,circularblurringint,maba09021998,001,2022-03-29_10h03.45.236,ratings,2022.1.1,Win32,60.09615385
1.601123596,3.023,0.608614232,3.861,0,86,86,444,1,709_69c01dcde028a2a1a913f1a2a5026ae1748484f75c89217a040c6791_orig.jpg,1.432444,-0.01935732,original,maba09021998,001,2022-03-29_10h03.45.236,ratings,2022.1.1,Win32,60.09615385
-0.617977528,2.674,1.123595506,3.44,0,87,87,71,1,172_c641c6c56ca6b594b773084e1363c852abdb65f988d7ff802ee503f2_circblurext.jpg,0.379572,0.01725328,circularblurringext,maba09021998,001,2022-03-29_10h03.45.236,ratings,2022.1.1,Win32,60.09615385
2.687265918,1.723,3.267790262,2.672,0,88,88,66,1,172_c641c6c56ca6b594b773084e1363c852abdb65f988d7ff802ee503f2_orig.jpg,0.379572,0.01725328,original,maba09021998,001,2022-03-29_10h03.45.236,ratings,2022.1.1,Win32,60.09615385
0.402621723,7.787,-1.535580524,8.67,0,89,89,541,1,1005_b980c0747d20935bc63cc27a9e05ce2ff5bae98f859872ec48edd7f5_bw.jpg,3.428572,-0.476192,blackwhite,maba09021998,001,2022-03-29_10h03.45.236,ratings,2022.1.1,Win32,60.09615385
-1.329588015,4.106,-2.265917603,5.617,0,90,90,537,1,986_a77edb21e78bc3a6aa7406517824596b3496ad6c657b6befb84cf370_blur.jpg,-3.906316,-0.60496,blurring,maba09021998,001,2022-03-29_10h03.45.236,ratings,2022.1.1,Win32,60.09615385
0.571161049,1.813,-0.63670412,2.728,0,91,91,233,1,407_578d31d32e806706dde2563213f130b90e621abfed0e47ecabd85d27_circblurext.jpg,3.5873,-0.444444,circularblurringext,maba09021998,001,2022-03-29_10h03.45.236,ratings,2022.1.1,Win32,60.09615385
-1.264044944,3.555,-1.573033708,2.892,0,92,92,63,1,156_08e8cf8f04630e9213e610580de73f51572d1d589878648700bae4dc_blur.jpg,2.222224,0.0,blurring,maba09021998,001,2022-03-29_10h03.45.236,ratings,2022.1.1,Win32,60.09615385
-2.612359551,1.52,-1.310861423,2.199,0,93,93,221,1,396_208259ea431d47bb7f3946213eb099834eb119756ce304ad473d4d9f_circblurext.jpg,2.857144,-0.3809524,circularblurringext,maba09021998,001,2022-03-29_10h03.45.236,ratings,2022.1.1,Win32,60.09615385
0.617977528,1.44,-2.265917603,2.375,0,94,94,353,1,498_305b74cdc4784d9d25e72724302e5402def70177ea31ae7e25fab66b_circblurext.jpg,3.04762,-0.444444,circularblurringext,maba09021998,001,2022-03-29_10h03.45.236,ratings,2022.1.1,Win32,60.09615385
1.151685393,1.858,0.234082397,2.394,0,95,95,145,1,354_e46c3ec6fb00773f64f2bcd212385f253c389808fe724b7cf8611051_bw.jpg,2.018292,0.0,blackwhite,maba09021998,001,2022-03-29_10h03.45.236,ratings,2022.1.1,Win32,60.09615385
0.374531835,2.408,-2.481273408,4.356,0,96,96,344,1,494_5c6c3b85a2734a43c24bfe337d42ffcc82b7347227804d01c784cef4_edges.jpg,0.03871468,0.0,edges,maba09021998,001,2022-03-29_10h03.45.236,ratings,2022.1.1,Win32,60.09615385
-1.882022472,1.42,-2.584269663,2.14,0,97,97,333,1,482_a1cd28915c5044c018195ab0fff10dcc95e385246b045a7cd4463ff7_blur.jpg,-3.361852,-1.555612,blurring,maba09021998,001,2022-03-29_10h03.45.236,ratings,2022.1.1,Win32,60.09615385
-1.573033708,1.942,-2.780898876,2.641,0,98,98,396,1,683_a004ad18331da968da5debdd15e1447dd7748750af0bc6c57b844200_orig.jpg,-2.91956,2.466524,original,maba09021998,001,2022-03-29_10h03.45.236,ratings,2022.1.1,Win32,60.09615385
0.786516854,1.358,-1.807116105,2.227,0,99,99,498,1,854_081a8409e4d6d10923b2dedcc16a3fca405fcd602e55a20d84cac69d_orig.jpg,3.088264,1.21538,original,maba09021998,001,2022-03-29_10h03.45.236,ratings,2022.1.1,Win32,60.09615385
0.627340824,1.808,0.374531835,2.472,0,100,100,5,1,13_771f4fcf0a212d25d6a78565e7f34cc5ddd823e7afbdc77ef063326e_circblurext.jpg,2.190476,0.0,circularblurringext,maba09021998,001,2022-03-29_10h03.45.236,ratings,2022.1.1,Win32,60.09615385
0.47752809,1.273,0.393258427,2.388,0,101,101,8,1,28_6318543b74eeb646a1735477ebc023fdc9ac3849bc0db1957c272a26_edges.jpg,2.811244,-0.74584,edges,maba09021998,001,2022-03-29_10h03.45.236,ratings,2022.1.1,Win32,60.09615385
1.38576779,1.839,-1.367041199,3.586,0,102,102,184,1,369_98db62a1bdabfd1bc551180da6658005b461585cd21614633cf76470_circblurint.jpg,2.190476,-0.03174604,circularblurringint,maba09021998,001,2022-03-29_10h03.45.236,ratings,2022.1.1,Win32,60.09615385
-1.282771536,1.89,-1.161048689,2.505,0,103,103,581,1,1061_665178b9cb0bc869cc2e2b68def4838db04e66f9531098fb75875a09_circblurext.jpg,0.3492064,-0.3174604,circularblurringext,maba09021998,001,2022-03-29_10h03.45.236,ratings,2022.1.1,Win32,60.09615385
0.805243446,1.292,1.161048689,3.225,0,104,104,4,1,13_771f4fcf0a212d25d6a78565e7f34cc5ddd823e7afbdc77ef063326e_circblurint.jpg,2.190476,0.0,circularblurringint,maba09021998,001,2022-03-29_10h03.45.236,ratings,2022.1.1,Win32,60.09615385
-1.741573034,14.152,-2.209737828,15.047,0,105,105,204,1,381_5935a9f9796adce2f1539af6c75bcdc0c80d847a2ce9b77cf59b7672_orig.jpg,-1.327432,-0.442476,original,maba09021998,001,2022-03-29_10h03.45.236,ratings,2022.1.1,Win32,60.09615385
2.303370787,1.723,2.368913858,3.558,0,106,106,517,1,860_05c4e22518a30d3d2add458a8fc6488f87b9b02dd8e385ded939f025_bw.jpg,1.955092,0.3097172,blackwhite,maba09021998,001,2022-03-29_10h03.45.236,ratings,2022.1.1,Win32,60.09615385
-1.816479401,1.974,0.823970037,2.977,0,107,107,360,1,508_a7a9519cdc7aad6844030f4e6cd96cffd1b9c49b71e20ea52789bda2_orig.jpg,-3.000388,-1.29694,original,maba09021998,001,2022-03-29_10h03.45.236,ratings,2022.1.1,Win32,60.09615385
0.571161049,2.007,-1.928838951,2.773,0,108,108,285,1,440_dc6413e2b65369ee2587f4d85621742fe4ca87392d0a8ad2ea7d94e3_blur.jpg,-3.016216,1.69404,blurring,maba09021998,001,2022-03-29_10h03.45.236,ratings,2022.1.1,Win32,60.09615385
1.329588015,1.341,1.676029963,1.924,0,109,109,177,1,368_6507b94d7d0199f14efd3706db30c9c44b96085f84e9cc7792e3e0ae_blur.jpg,1.959544,0.400336,blurring,maba09021998,001,2022-03-29_10h03.45.236,ratings,2022.1.1,Win32,60.09615385
-1.975655431,2.323,-2.621722846,3.11,0,110,110,308,1,455_34a7d8167619d110206c369e3f7dce8a3f99db763a9d8e2b956501d3_edges.jpg,-2.526412,-0.3827896,edges,maba09021998,001,2022-03-29_10h03.45.236,ratings,2022.1.1,Win32,60.09615385
-2.415730337,2.441,-0.730337079,4.057,0,111,111,403,1,686_6745b57686ad5d1bd6cf3e7ed5bc0243a154f8939e88e30321dfcfdb_bw.jpg,-1.523808,3.650792,blackwhite,maba09021998,001,2022-03-29_10h03.45.236,ratings,2022.1.1,Win32,60.09615385
0.889513109,1.692,0.74906367,2.174,0,112,112,76,1,236_f645730e1eb06155418c9a571329cc7fa320654fcaaedf1048b5cc11_circblurint.jpg,2.253968,0.0,circularblurringint,maba09021998,001,2022-03-29_10h03.45.236,ratings,2022.1.1,Win32,60.09615385
2.312734082,1.474,1.779026217,2.492,0,113,113,7,1,28_6318543b74eeb646a1735477ebc023fdc9ac3849bc0db1957c272a26_bw.jpg,2.811244,-0.74584,blackwhite,maba09021998,001,2022-03-29_10h03.45.236,ratings,2022.1.1,Win32,60.09615385
0.664794007,2.625,-2.18164794,3.206,0,114,114,446,1,709_69c01dcde028a2a1a913f1a2a5026ae1748484f75c89217a040c6791_edges.jpg,1.432444,-0.01935732,edges,maba09021998,001,2022-03-29_10h03.45.236,ratings,2022.1.1,Win32,60.09615385
-2.059925094,1.559,-2.013108614,2.194,0,115,115,439,1,700_59cb565f134f1afd066d7b6d936c6511b7cb76de0e9cbb5ce15124ad_bw.jpg,0.0,0.0,blackwhite,maba09021998,001,2022-03-29_10h03.45.236,ratings,2022.1.1,Win32,60.09615385
0.74906367,3.986,-1.797752809,4.608,0,116,116,69,1,172_c641c6c56ca6b594b773084e1363c852abdb65f988d7ff802ee503f2_blur.jpg,0.379572,0.01725328,blurring,maba09021998,001,2022-03-29_10h03.45.236,ratings,2022.1.1,Win32,60.09615385
-1.86329588,4.269,-3.174157303,4.99,0,117,117,85,1,243_beddb302dcb21071d88c8d2cab07002050d36b3001ef28f89389fa56_bw.jpg,-0.3450656,-0.2070392,blackwhite,maba09021998,001,2022-03-29_10h03.45.236,ratings,2022.1.1,Win32,60.09615385
0.561797753,1.307,-2.275280899,1.94,0,118,118,422,1,692_e3e3bf88684fbbcdb9849a4147f9e2fcd39b0f083554a829aca4e9fa_edges.jpg,-0.44522,3.135888,edges,maba09021998,001,2022-03-29_10h03.45.236,ratings,2022.1.1,Win32,60.09615385
-1.348314607,2.469,-1.329588015,3.131,0,119,119,413,1,687_e3b018945792a574962235c88c553b7c318c75eec2596478e8a7b877_circblurext.jpg,3.63918,-0.42586,circularblurringext,maba09021998,001,2022-03-29_10h03.45.236,ratings,2022.1.1,Win32,60.09615385
0.664794007,1.391,0.056179775,2.052,0,120,120,549,1,1010_06d15f44b979c086561137000ec070ba4cd479856f92840a7850b2bf_blur.jpg,0.189786,-0.189786,blurring,maba09021998,001,2022-03-29_10h03.45.236,ratings,2022.1.1,Win32,60.09615385
-2.996254682,1.608,-0.15917603,3.872,0,121,121,511,1,858_2f6539ee36aba48c38dc716d4f7c3ae93367d6ddf23ab41745d4172c_bw.jpg,0.0623832,0.176752,blackwhite,maba09021998,001,2022-03-29_10h03.45.236,ratings,2022.1.1,Win32,60.09615385
-2.153558052,7.984,2.612359551,8.666,0,122,122,19,1,48_2cc936b2483ab2944c9158e163342b874ef6c1492fd8fca08c0e096e_bw.jpg,-1.264224,-0.779604,blackwhite,maba09021998,001,2022-03-29_10h03.45.236,ratings,2022.1.1,Win32,60.09615385
-1.38576779,1.841,-2.116104869,2.745,0,123,123,261,1,416_8a1f874e0057d67a4e6955865ba88b2d8ce2c8b4469589307687a723_blur.jpg,-1.753336,3.088264,blurring,maba09021998,001,2022-03-29_10h03.45.236,ratings,2022.1.1,Win32,60.09615385
-0.224719101,2.921,2.06928839,4.04,0,124,124,2,1,13_771f4fcf0a212d25d6a78565e7f34cc5ddd823e7afbdc77ef063326e_edges.jpg,2.190476,0.0,edges,maba09021998,001,2022-03-29_10h03.45.236,ratings,2022.1.1,Win32,60.09615385
-1.647940075,1.579,-1.413857678,2.293,0,125,125,137,1,349_8809a67686d34844c915d7700e2ea72ad1c02ae232ae0d3cc0e458d4_circblurext.jpg,-3.619048,-0.2857144,circularblurringext,maba09021998,001,2022-03-29_10h03.45.236,ratings,2022.1.1,Win32,60.09615385
-2.509363296,1.158,-1.058052434,1.724,0,126,126,249,1,414_0187bdf7007109b487865b6a9d388997a6817acf052a6a7cdd5b39d9_blur.jpg,-2.786708,-1.133056,blurring,maba09021998,001,2022-03-29_10h03.45.236,ratings,2022.1.1,Win32,60.09615385
-3.127340824,3.622,-0.374531835,5.138,0,127,127,342,1,494_5c6c3b85a2734a43c24bfe337d42ffcc82b7347227804d01c784cef4_orig.jpg,0.03871468,0.0,original,maba09021998,001,2022-03-29_10h03.45.236,ratings,2022.1.1,Win32,60.09615385
-1.797752809,2.74,-0.983146067,3.405,0,128,128,227,1,403_57ac47f43882fc031a6067b1a388c0b2cbe8708dcbd2ff1019932eff_circblurext.jpg,-3.333332,-1.396824,circularblurringext,maba09021998,001,2022-03-29_10h03.45.236,ratings,2022.1.1,Win32,60.09615385
2.294007491,1.457,0.992509363,2.492,0,129,129,198,1,380_34772591c787182a37724027eac6948ebc9d4064f6a601d23b923b8e_orig.jpg,2.222224,-0.063492,original,maba09021998,001,2022-03-29_10h03.45.236,ratings,2022.1.1,Win32,60.09615385
0.393258427,1.956,-1.086142322,2.624,0,130,130,383,1,640_0ddb4981a5f5842ed5b4f7ef941be53779189df5e718b1fc5475ad80_circblurext.jpg,2.571428,-1.873016,circularblurringext,maba09021998,001,2022-03-29_10h03.45.236,ratings,2022.1.1,Win32,60.09615385
2.453183521,1.423,-1.217228464,2.288,0,131,131,30,1,60_ad52063167538de24f94d7dfd04808cb94cf8f426c40871d2f126505_orig.jpg,2.158732,0.0,original,maba09021998,001,2022-03-29_10h03.45.236,ratings,2022.1.1,Win32,60.09615385
2.584269663,2.358,0.777153558,4.84,0,132,132,276,1,440_9bf7e8609729bf888835168834da6c3ff30b75d0d4f36e2ee6918bcc_orig.jpg,-2.284164,2.710028,original,maba09021998,001,2022-03-29_10h03.45.236,ratings,2022.1.1,Win32,60.09615385
2.106741573,1.592,1.095505618,2.188,0,133,133,278,1,440_9bf7e8609729bf888835168834da6c3ff30b75d0d4f36e2ee6918bcc_edges.jpg,-2.284164,2.710028,edges,maba09021998,001,2022-03-29_10h03.45.236,ratings,2022.1.1,Win32,60.09615385
-1.86329588,3.554,-0.880149813,4.141,0,134,134,195,1,379_eeaa6d9bf5a4ef205dc48bc505cf3a7f24ea86e99af9b371e03602a7_blur.jpg,-0.3926308,2.88936,blurring,maba09021998,001,2022-03-29_10h03.45.236,ratings,2022.1.1,Win32,60.09615385
1.741573034,1.687,0.365168539,2.451,0,135,135,40,1,82_43f4d5aec7c2e5bd495473f6708a0f2d47c9fe34e1fe9436646cb036_circblurint.jpg,2.022756,0.505688,circularblurringint,maba09021998,001,2022-03-29_10h03.45.236,ratings,2022.1.1,Win32,60.09615385
-2.059925094,2.074,-0.917602996,3.49,0,136,136,270,1,434_ba36d91204d7e578001f6a545d7501e65d209554def5a3c8b7583825_orig.jpg,-3.523808,1.428572,original,maba09021998,001,2022-03-29_10h03.45.236,ratings,2022.1.1,Win32,60.09615385
-1.676029963,1.646,-0.617977528,2.256,0,137,137,591,1,1228_557412d34d6a70b7c5d222e030aa485b351a4574e8ba1a3112d1d13d_blur.jpg,2.137444,0.703464,blurring,maba09021998,001,2022-03-29_10h03.45.236,ratings,2022.1.1,Win32,60.09615385
-1.54494382,3.007,-2.65917603,3.693,0,138,138,481,1,759_95e1c46ed9a337414d5c8eada8fa8b9632e18751f5ce6ed587806e91_bw.jpg,2.126984,0.0,blackwhite,maba09021998,001,2022-03-29_10h03.45.236,ratings,2022.1.1,Win32,60.09615385
-1.70411985,2.225,-2.162921348,2.859,0,139,139,501,1,854_081a8409e4d6d10923b2dedcc16a3fca405fcd602e55a20d84cac69d_blur.jpg,3.088264,1.21538,blurring,maba09021998,001,2022-03-29_10h03.45.236,ratings,2022.1.1,Win32,60.09615385
0.496254682,1.501,-0.917602996,2.419,0,140,140,465,1,736_bb85db1bcda8eb34299aa5791ac65a0a7c343266eb2d6e6e328ec0e1_blur.jpg,3.650792,-0.03174604,blurring,maba09021998,001,2022-03-29_10h03.45.236,ratings,2022.1.1,Win32,60.09615385
-2.81835206,1.859,-1.872659176,2.641,0,141,141,312,1,459_46e25de472bb056cb470716d30937415f7344bfc4354d6eb710d8c9f_orig.jpg,0.03174604,0.0,original,maba09021998,001,2022-03-29_10h03.45.236,ratings,2022.1.1,Win32,60.09615385
0.571161049,1.993,0.571161049,2.561,0,142,142,74,1,236_f645730e1eb06155418c9a571329cc7fa320654fcaaedf1048b5cc11_edges.jpg,2.253968,0.0,edges,maba09021998,001,2022-03-29_10h03.45.236,ratings,2022.1.1,Win32,60.09615385
-2.237827715,1.477,-2.593632959,2.307,0,143,143,529,1,915_dc9fd40a3b5d64a180833a7bac86e7556c24f681f473fe255e41f936_bw.jpg,-3.09294,-0.918696,blackwhite,maba09021998,001,2022-03-29_10h03.45.236,ratings,2022.1.1,Win32,60.09615385
-1.75093633,3.237,-1.06741573,4.024,0,144,144,599,1,1239_cee00457f4cfb76a407b12fd5ad714d440a4614c1e5467ee16caf618_circblurext.jpg,-0.03174604,0.190476,circularblurringext,maba09021998,001,2022-03-29_10h03.45.236,ratings,2022.1.1,Win32,60.09615385
0.870786517,3.704,-1.43258427,4.416,0,145,145,187,1,369_c99797771115d7627d4abe3415f814497288f91a7be1a04c17c776b9_bw.jpg,3.619824,-0.174216,blackwhite,maba09021998,001,2022-03-29_10h03.45.236,ratings,2022.1.1,Win32,60.09615385
-0.205992509,5.154,-1.91011236,6.439,0,146,146,592,1,1228_557412d34d6a70b7c5d222e030aa485b351a4574e8ba1a3112d1d13d_circblurint.jpg,2.137444,0.703464,circularblurringint,maba09021998,001,2022-03-29_10h03.45.236,ratings,2022.1.1,Win32,60.09615385
1.020599251,1.724,0.9082397,2.971,0,147,147,33,1,60_ad52063167538de24f94d7dfd04808cb94cf8f426c40871d2f126505_blur.jpg,2.158732,0.0,blurring,maba09021998,001,2022-03-29_10h03.45.236,ratings,2022.1.1,Win32,60.09615385
0.58988764,1.61,-1.985018727,2.095,0,148,148,470,1,741_2b218fb015e3da83db73cacdb52e61e0c2534c1fe255bb1c5c74d47f_edges.jpg,3.140096,0.448584,edges,maba09021998,001,2022-03-29_10h03.45.236,ratings,2022.1.1,Win32,60.09615385
0.730337079,1.518,-2.387640449,2.168,0,149,149,170,1,365_45a719cabbc9aa308c4fcb30d529489c6966ac4073874af84f665c61_edges.jpg,2.507936,-1.968252,edges,maba09021998,001,2022-03-29_10h03.45.236,ratings,2022.1.1,Win32,60.09615385
1.526217228,1.728,1.020599251,2.322,0,150,150,108,1,293_3dfdfafc0c6a54b2da7453750ac281f7718c0b3337b0a74c4563d6bd_orig.jpg,-2.574524,2.632596,original,maba09021998,001,2022-03-29_10h03.45.236,ratings,2022.1.1,Win32,60.09615385
-1.132958801,2.277,-2.162921348,3.095,0,151,151,356,1,500_3b520c7f352afa1a9f8c07e56cc0588cdc04d25ff6e7b602b5e280cb_edges.jpg,-0.8328,3.11766,edges,maba09021998,001,2022-03-29_10h03.45.236,ratings,2022.1.1,Win32,60.09615385
-1.254681648,1.306,-2.191011236,1.952,0,152,152,327,1,468_8b69b13120daebadd8a4a3166e1419f2404395cba231307a4efa9fde_blur.jpg,2.031744,0.2539684,blurring,maba09021998,001,2022-03-29_10h03.45.236,ratings,2022.1.1,Win32,60.09615385
-3.174157303,1.884,-0.514981273,3.451,0,153,153,385,1,646_577760d718dab44c6f04d77408c5644a120065ce07a9503957d0850a_bw.jpg,-2.690668,2.61324,blackwhite,maba09021998,001,2022-03-29_10h03.45.236,ratings,2022.1.1,Win32,60.09615385
-2.125468165,1.706,-1.629213483,2.256,0,154,154,450,1,716_2ab64478147184c4df720a52cf621875addc9007cb2967e4a9a88909_orig.jpg,2.428484,0.0,original,maba09021998,001,2022-03-29_10h03.45.236,ratings,2022.1.1,Win32,60.09615385
1.404494382,1.824,-1.947565543,3.225,0,155,155,527,1,877_cab3efed0c9ff4552037df6c1ea4ea9713f915c94592a14dbf2799da_circblurext.jpg,3.174604,0.3174604,circularblurringext,maba09021998,001,2022-03-29_10h03.45.236,ratings,2022.1.1,Win32,60.09615385
1.357677903,1.409,0.889513109,1.89,0,156,156,447,1,709_69c01dcde028a2a1a913f1a2a5026ae1748484f75c89217a040c6791_blur.jpg,1.432444,-0.01935732,blurring,maba09021998,001,2022-03-29_10h03.45.236,ratings,2022.1.1,Win32,60.09615385
-0.252808989,2.241,-0.31835206,2.889,0,157,157,14,1,39_2fafccaa4dc69045a05845f59c6b3cd2edcf7e0e0c108b24e553afe0_edges.jpg,2.022756,0.463548,edges,maba09021998,001,2022-03-29_10h03.45.236,ratings,2022.1.1,Win32,60.09615385
-0.458801498,2.646,-0.15917603,3.141,0,158,158,542,1,1005_b980c0747d20935bc63cc27a9e05ce2ff5bae98f859872ec48edd7f5_edges.jpg,3.428572,-0.476192,edges,maba09021998,001,2022-03-29_10h03.45.236,ratings,2022.1.1,Win32,60.09615385
1.713483146,2.909,3.239700375,3.562,0,159,159,115,1,332_4d584229bdae2e1782f77f0e953e528f13c3dfa79b4b94736c0310fa_bw.jpg,3.157348,0.483092,blackwhite,maba09021998,001,2022-03-29_10h03.45.236,ratings,2022.1.1,Win32,60.09615385
1.020599251,1.429,3.033707865,2.008,0,160,160,445,1,709_69c01dcde028a2a1a913f1a2a5026ae1748484f75c89217a040c6791_bw.jpg,1.432444,-0.01935732,blackwhite,maba09021998,001,2022-03-29_10h03.45.236,ratings,2022.1.1,Win32,60.09615385
-2.02247191,1.593,-1.217228464,2.225,0,161,161,571,1,1039_d64da8480fc6e94dcdc513237d600570ae0b9fe48795ac6a8b2d29a7_bw.jpg,-2.507936,-1.142856,blackwhite,maba09021998,001,2022-03-29_10h03.45.236,ratings,2022.1.1,Win32,60.09615385
-2.209737828,3.023,-0.421348315,3.605,0,162,162,65,1,156_08e8cf8f04630e9213e610580de73f51572d1d589878648700bae4dc_circblurext.jpg,2.222224,0.0,circularblurringext,maba09021998,001,2022-03-29_10h03.45.236,ratings,2022.1.1,Win32,60.09615385
0.308988764,2.756,0.280898876,3.155,0,163,163,228,1,407_578d31d32e806706dde2563213f130b90e621abfed0e47ecabd85d27_orig.jpg,3.5873,-0.444444,original,maba09021998,001,2022-03-29_10h03.45.236,ratings,2022.1.1,Win32,60.09615385
0.177902622,1.255,0.833333333,1.921,0,164,164,201,1,380_34772591c787182a37724027eac6948ebc9d4064f6a601d23b923b8e_blur.jpg,2.222224,-0.063492,blurring,maba09021998,001,2022-03-29_10h03.45.236,ratings,2022.1.1,Win32,60.09615385
-1.441947566,1.477,-0.280898876,2.205,0,165,165,104,1,284_cdcbd54fc995081ac95c8b2c37a19cebb341f61a8eb268cee1623492_edges.jpg,-1.015872,2.095236,edges,maba09021998,001,2022-03-29_10h03.45.236,ratings,2022.1.1,Win32,60.09615385
-2.284644195,34.178,-2.284644195,34.694,0,166,166,400,1,683_a004ad18331da968da5debdd15e1447dd7748750af0bc6c57b844200_circblurint.jpg,-2.91956,2.466524,circularblurringint,maba09021998,001,2022-03-29_10h03.45.236,ratings,2022.1.1,Win32,60.09615385
1.264044944,2.833,1.217228464,3.515,0,167,167,281,1,440_9bf7e8609729bf888835168834da6c3ff30b75d0d4f36e2ee6918bcc_circblurext.jpg,-2.284164,2.710028,circularblurringext,maba09021998,001,2022-03-29_10h03.45.236,ratings,2022.1.1,Win32,60.09615385
0.112359551,1.328,0.805243446,1.989,0,168,168,338,1,492_a1a4d288d3bc486c83c3b6a835c42891989f5ba781633932298a7676_edges.jpg,3.406892,-0.44522,edges,maba09021998,001,2022-03-29_10h03.45.236,ratings,2022.1.1,Win32,60.09615385
1.292134831,3.242,1.076779026,3.871,0,169,169,348,1,498_305b74cdc4784d9d25e72724302e5402def70177ea31ae7e25fab66b_orig.jpg,3.04762,-0.444444,original,maba09021998,001,2022-03-29_10h03.45.236,ratings,2022.1.1,Win32,60.09615385
-1.376404494,1.571,-1.423220974,2.177,0,170,170,274,1,434_ba36d91204d7e578001f6a545d7501e65d209554def5a3c8b7583825_circblurint.jpg,-3.523808,1.428572,circularblurringint,maba09021998,001,2022-03-29_10h03.45.236,ratings,2022.1.1,Win32,60.09615385
1.38576779,2.197,-2.397003745,2.788,0,171,171,24,1,59_8568373b727f29d67ba6ce4c360dd918c8b08b13495fca56bdda5e82_orig.jpg,2.064896,0.505688,original,maba09021998,001,2022-03-29_10h03.45.236,ratings,2022.1.1,Win32,60.09615385
-0.046816479,2.14,-1.123595506,2.908,0,172,172,354,1,500_3b520c7f352afa1a9f8c07e56cc0588cdc04d25ff6e7b602b5e280cb_orig.jpg,-0.8328,3.11766,original,maba09021998,001,2022-03-29_10h03.45.236,ratings,2022.1.1,Win32,60.09615385
-2.471910112,2.192,0.440074906,4.829,0,173,173,42,1,92_5d20d78a8e57e628c6930676473a4e0a485e715841efd6286c660020_orig.jpg,2.126984,0.0,original,maba09021998,001,2022-03-29_10h03.45.236,ratings,2022.1.1,Win32,60.09615385
-2.312734082,2.104,-0.898876404,2.804,0,174,174,575,1,1039_d64da8480fc6e94dcdc513237d600570ae0b9fe48795ac6a8b2d29a7_circblurext.jpg,-2.507936,-1.142856,circularblurringext,maba09021998,001,2022-03-29_10h03.45.236,ratings,2022.1.1,Win32,60.09615385
1.310861423,1.492,0.870786517,2.213,0,175,175,508,1,855_66d893451dfd1e7615132071c6c8a82b02dc2b37781cd89400883b26_circblurint.jpg,2.69484,0.2143624,circularblurringint,maba09021998,001,2022-03-29_10h03.45.236,ratings,2022.1.1,Win32,60.09615385
-3.127340824,1.807,0.964419476,2.539,0,176,176,98,1,267_792043debad81ce271cec5b3c3bd9d264efc13f362bec9c7a3f72fe7_edges.jpg,1.980616,0.2107036,edges,maba09021998,001,2022-03-29_10h03.45.236,ratings,2022.1.1,Win32,60.09615385
-2.331460674,1.791,1.132958801,2.373,0,177,177,226,1,403_57ac47f43882fc031a6067b1a388c0b2cbe8708dcbd2ff1019932eff_circblurint.jpg,-3.333332,-1.396824,circularblurringint,maba09021998,001,2022-03-29_10h03.45.236,ratings,2022.1.1,Win32,60.09615385
-1.582397004,4.885,-0.852059925,5.583,0,178,178,346,1,494_5c6c3b85a2734a43c24bfe337d42ffcc82b7347227804d01c784cef4_circblurint.jpg,0.03871468,0.0,circularblurringint,maba09021998,001,2022-03-29_10h03.45.236,ratings,2022.1.1,Win32,60.09615385
-2.284644195,1.407,-2.565543071,1.807,0,179,179,58,1,137_0e6a04243c0a42a5e2528a2d181255ca2a4b7bd6e7978c5c2059c69f_circblurint.jpg,-0.95238,2.095236,circularblurringint,maba09021998,001,2022-03-29_10h03.45.236,ratings,2022.1.1,Win32,60.09615385
-1.5917603,1.745,-1.451310861,2.276,0,180,180,594,1,1239_cee00457f4cfb76a407b12fd5ad714d440a4614c1e5467ee16caf618_orig.jpg,-0.03174604,0.190476,original,maba09021998,001,2022-03-29_10h03.45.236,ratings,2022.1.1,Win32,60.09615385
0.383895131,1.816,1.975655431,2.383,0,181,181,48,1,112_b6a4ce721c2e42943d7d8b168751d74cd2f372b1cd4fed5a4404faec_orig.jpg,2.107036,0.505688,original,maba09021998,001,2022-03-29_10h03.45.236,ratings,2022.1.1,Win32,60.09615385
-1.22659176,1.374,-0.421348315,1.741,0,182,182,88,1,243_beddb302dcb21071d88c8d2cab07002050d36b3001ef28f89389fa56_circblurint.jpg,-0.3450656,-0.2070392,circularblurringint,maba09021998,001,2022-03-29_10h03.45.236,ratings,2022.1.1,Win32,60.09615385
-1.657303371,2.222,1.975655431,2.725,0,183,183,293,1,442_7449d79dae5d652af9b2429872cabdef938646ba024db2f431b3b28d_circblurext.jpg,1.619048,0.126984,circularblurringext,maba09021998,001,2022-03-29_10h03.45.236,ratings,2022.1.1,Win32,60.09615385
-2.462546816,24.656,-1.451310861,25.269,0,184,184,579,1,1061_665178b9cb0bc869cc2e2b68def4838db04e66f9531098fb75875a09_blur.jpg,0.3492064,-0.3174604,blurring,maba09021998,001,2022-03-29_10h03.45.236,ratings,2022.1.1,Win32,60.09615385
-2.584269663,1.388,0.234082397,2.054,0,185,185,250,1,414_0187bdf7007109b487865b6a9d388997a6817acf052a6a7cdd5b39d9_circblurint.jpg,-2.786708,-1.133056,circularblurringint,maba09021998,001,2022-03-29_10h03.45.236,ratings,2022.1.1,Win32,60.09615385
-1.601123596,14.429,-1.882022472,15.41,0,186,186,560,1,1022_cf035e583d41a856836f8b0ae314ecbe79dffd9e40ef6a08cc26028f_edges.jpg,-0.2516452,3.05846,edges,maba09021998,001,2022-03-29_10h03.45.236,ratings,2022.1.1,Win32,60.09615385
-2.631086142,1.227,-2.471910112,1.788,0,187,187,392,1,663_aaf52107fe3a86392530d88b34e86f9d2b6820714cad98d1e3c2cb67_edges.jpg,2.58766,0.0918696,edges,maba09021998,001,2022-03-29_10h03.45.236,ratings,2022.1.1,Win32,60.09615385
0.458801498,1.788,-2.256554307,2.337,0,188,188,123,1,347_27f0e47c2722605b950ccf9fa900f78271e4c3c874064ab5dacac160_blur.jpg,1.838948,0.3097172,blurring,maba09021998,001,2022-03-29_10h03.45.236,ratings,2022.1.1,Win32,60.09615385
-1.573033708,1.658,-2.406367041,2.427,0,189,189,455,1,716_2ab64478147184c4df720a52cf621875addc9007cb2967e4a9a88909_circblurext.jpg,2.428484,0.0,circularblurringext,maba09021998,001,2022-03-29_10h03.45.236,ratings,2022.1.1,Win32,60.09615385
-1.151685393,2.746,-1.797752809,3.374,0,190,190,480,1,759_95e1c46ed9a337414d5c8eada8fa8b9632e18751f5ce6ed587806e91_orig.jpg,2.126984,0.0,original,maba09021998,001,2022-03-29_10h03.45.236,ratings,2022.1.1,Win32,60.09615385
-1.769662921,4.023,-0.440074906,4.859,0,191,191,424,1,692_e3e3bf88684fbbcdb9849a4147f9e2fcd39b0f083554a829aca4e9fa_circblurint.jpg,-0.44522,3.135888,circularblurringint,maba09021998,001,2022-03-29_10h03.45.236,ratings,2022.1.1,Win32,60.09615385
1.676029963,1.924,3.389513109,2.657,0,192,192,37,1,82_43f4d5aec7c2e5bd495473f6708a0f2d47c9fe34e1fe9436646cb036_bw.jpg,2.022756,0.505688,blackwhite,maba09021998,001,2022-03-29_10h03.45.236,ratings,2022.1.1,Win32,60.09615385
-2.162921348,2.219,0.880149813,2.756,0,193,193,534,1,986_a77edb21e78bc3a6aa7406517824596b3496ad6c657b6befb84cf370_orig.jpg,-3.906316,-0.60496,original,maba09021998,001,2022-03-29_10h03.45.236,ratings,2022.1.1,Win32,60.09615385
-3.651685393,3.326,3.286516854,4.457,0,194,194,479,1,748_e519892faa7c772a0afaf9eeff36cf0e411574027ab3d9aa4947a048_circblurext.jpg,-1.813112,3.307432,circularblurringext,maba09021998,001,2022-03-29_10h03.45.236,ratings,2022.1.1,Win32,60.09615385
-1.217228464,6.653,-2.059925094,9.217,0,195,195,34,1,60_ad52063167538de24f94d7dfd04808cb94cf8f426c40871d2f126505_circblurint.jpg,2.158732,0.0,circularblurringint,maba09021998,001,2022-03-29_10h03.45.236,ratings,2022.1.1,Win32,60.09615385
-2.434456929,1.209,-0.823970037,1.76,0,196,196,335,1,482_a1cd28915c5044c018195ab0fff10dcc95e385246b045a7cd4463ff7_circblurext.jpg,-3.361852,-1.555612,circularblurringext,maba09021998,001,2022-03-29_10h03.45.236,ratings,2022.1.1,Win32,60.09615385
2.359550562,4.078,1.292134831,4.707,0,197,197,585,1,1225_59c67a821456f2cce3e5acf66d7f00076bd02caffc984c1eb0df794e_blur.jpg,-0.444444,3.809524,blurring,maba09021998,001,2022-03-29_10h03.45.236,ratings,2022.1.1,Win32,60.09615385
-2.827715356,1.441,-0.870786517,1.972,0,198,198,416,1,692_7d7eaf20e6de8956f0fca7500ace97a8599aa8b605a7d690cdb28724_edges.jpg,-2.063492,-1.26984,edges,maba09021998,001,2022-03-29_10h03.45.236,ratings,2022.1.1,Win32,60.09615385
-3.45505618,1.29,-1.292134831,2.258,0,199,199,322,1,460_e06b3af7ff2f2bfb5f9b6e3d5dc25b9aaa40b84823fac8fd934621bd_circblurint.jpg,-3.430992,-1.607468,circularblurringint,maba09021998,001,2022-03-29_10h03.45.236,ratings,2022.1.1,Win32,60.09615385
-1.573033708,1.474,-1.27340824,2.023,0,200,200,11,1,28_6318543b74eeb646a1735477ebc023fdc9ac3849bc0db1957c272a26_circblurext.jpg,2.811244,-0.74584,circularblurringext,maba09021998,001,2022-03-29_10h03.45.236,ratings,2022.1.1,Win32,60.09615385
0.58988764,2.251,-1.554307116,2.849,0,201,201,68,1,172_c641c6c56ca6b594b773084e1363c852abdb65f988d7ff802ee503f2_edges.jpg,0.379572,0.01725328,edges,maba09021998,001,2022-03-29_10h03.45.236,ratings,2022.1.1,Win32,60.09615385
-2.088014981,2.558,1.86329588,3.105,0,202,202,399,1,683_a004ad18331da968da5debdd15e1447dd7748750af0bc6c57b844200_blur.jpg,-2.91956,2.466524,blurring,maba09021998,001,2022-03-29_10h03.45.236,ratings,2022.1.1,Win32,60.09615385
-2.237827715,2.096,-0.814606742,2.727,0,203,203,243,1,411_adfd0d5782129756321ff671d0cfb712528504c66c863df11aabd1e7_blur.jpg,-3.392332,-1.369576,blurring,maba09021998,001,2022-03-29_10h03.45.236,ratings,2022.1.1,Win32,60.09615385
-2.284644195,1.556,-2.153558052,2.206,0,204,204,379,1,640_0ddb4981a5f5842ed5b4f7ef941be53779189df5e718b1fc5475ad80_bw.jpg,2.571428,-1.873016,blackwhite,maba09021998,001,2022-03-29_10h03.45.236,ratings,2022.1.1,Win32,60.09615385
-3.389513109,1.463,-1.507490637,2.123,0,205,205,193,1,379_eeaa6d9bf5a4ef205dc48bc505cf3a7f24ea86e99af9b371e03602a7_bw.jpg,-0.3926308,2.88936,blackwhite,maba09021998,001,2022-03-29_10h03.45.236,ratings,2022.1.1,Win32,60.09615385
-0.720973783,2.756,-0.599250936,3.376,0,206,206,524,1,877_cab3efed0c9ff4552037df6c1ea4ea9713f915c94592a14dbf2799da_edges.jpg,3.174604,0.3174604,edges,maba09021998,001,2022-03-29_10h03.45.236,ratings,2022.1.1,Win32,60.09615385
0.79588015,1.99,-1.638576779,2.59,0,207,207,558,1,1022_cf035e583d41a856836f8b0ae314ecbe79dffd9e40ef6a08cc26028f_orig.jpg,-0.2516452,3.05846,original,maba09021998,001,2022-03-29_10h03.45.236,ratings,2022.1.1,Win32,60.09615385
-3.146067416,1.973,-1.235955056,4.448,0,208,208,475,1,748_e519892faa7c772a0afaf9eeff36cf0e411574027ab3d9aa4947a048_bw.jpg,-1.813112,3.307432,blackwhite,maba09021998,001,2022-03-29_10h03.45.236,ratings,2022.1.1,Win32,60.09615385
0.168539326,1.774,-0.898876404,2.373,0,209,209,254,1,416_5eb54976bb41ce2a6d129ef985f792e716f010fb9b69b15f50f5d2db_edges.jpg,-2.58766,2.602972,edges,maba09021998,001,2022-03-29_10h03.45.236,ratings,2022.1.1,Win32,60.09615385
-2.144194757,1.243,-1.310861423,1.858,0,210,210,404,1,686_6745b57686ad5d1bd6cf3e7ed5bc0243a154f8939e88e30321dfcfdb_edges.jpg,-1.523808,3.650792,edges,maba09021998,001,2022-03-29_10h03.45.236,ratings,2022.1.1,Win32,60.09615385
-2.368913858,1.9,-2.125468165,2.578,0,211,211,128,1,349_18d92ef5c21ca70a3dd237aad251594e1688bbe01d8cff37b89c46b8_edges.jpg,-2.74874,-1.258228,edges,maba09021998,001,2022-03-29_10h03.45.236,ratings,2022.1.1,Win32,60.09615385
1.179775281,1.673,1.994382022,2.092,0,212,212,36,1,82_43f4d5aec7c2e5bd495473f6708a0f2d47c9fe34e1fe9436646cb036_orig.jpg,2.022756,0.505688,original,maba09021998,001,2022-03-29_10h03.45.236,ratings,2022.1.1,Win32,60.09615385
-2.116104869,2.33,-0.571161049,2.874,0,213,213,357,1,500_3b520c7f352afa1a9f8c07e56cc0588cdc04d25ff6e7b602b5e280cb_blur.jpg,-0.8328,3.11766,blurring,maba09021998,001,2022-03-29_10h03.45.236,ratings,2022.1.1,Win32,60.09615385
-2.312734082,1.29,-1.816479401,1.83,0,214,214,135,1,349_8809a67686d34844c915d7700e2ea72ad1c02ae232ae0d3cc0e458d4_blur.jpg,-3.619048,-0.2857144,blurring,maba09021998,001,2022-03-29_10h03.45.236,ratings,2022.1.1,Win32,60.09615385
-1.919475655,2.108,0.964419476,2.589,0,215,215,550,1,1010_06d15f44b979c086561137000ec070ba4cd479856f92840a7850b2bf_circblurint.jpg,0.189786,-0.189786,circularblurringint,maba09021998,001,2022-03-29_10h03.45.236,ratings,2022.1.1,Win32,60.09615385
-0.037453184,7.833,-3.370786517,9.336,0,216,216,291,1,442_7449d79dae5d652af9b2429872cabdef938646ba024db2f431b3b28d_blur.jpg,1.619048,0.126984,blurring,maba09021998,001,2022-03-29_10h03.45.236,ratings,2022.1.1,Win32,60.09615385
0.252808989,2.642,0.028089888,3.271,0,217,217,38,1,82_43f4d5aec7c2e5bd495473f6708a0f2d47c9fe34e1fe9436646cb036_edges.jpg,2.022756,0.505688,edges,maba09021998,001,2022-03-29_10h03.45.236,ratings,2022.1.1,Win32,60.09615385
-2.471910112,1.458,-0.205992509,2.139,0,218,218,157,1,358_157f8ac929713531a15b1ecf115e7b659cb90e83d675251e368d165f_bw.jpg,-3.777776,-0.571428,blackwhite,maba09021998,001,2022-03-29_10h03.45.236,ratings,2022.1.1,Win32,60.09615385
-2.762172285,2.626,1.891385768,3.294,0,219,219,494,1,824_b1d91cc824ce0d3d383d3147da88d3d6dbaf6be918bab79e3ec8f501_edges.jpg,-3.645176,-1.432784,edges,maba09021998,001,2022-03-29_10h03.45.236,ratings,2022.1.1,Win32,60.09615385
-1.526217228,12.882,0.018726592,13.846,0,220,220,122,1,347_27f0e47c2722605b950ccf9fa900f78271e4c3c874064ab5dacac160_edges.jpg,1.838948,0.3097172,edges,maba09021998,001,2022-03-29_10h03.45.236,ratings,2022.1.1,Win32,60.09615385
1.282771536,1.453,-1.123595506,2.182,0,221,221,231,1,407_578d31d32e806706dde2563213f130b90e621abfed0e47ecabd85d27_blur.jpg,3.5873,-0.444444,blurring,maba09021998,001,2022-03-29_10h03.45.236,ratings,2022.1.1,Win32,60.09615385
0.43071161,1.443,-1.43258427,2.172,0,222,222,35,1,60_ad52063167538de24f94d7dfd04808cb94cf8f426c40871d2f126505_circblurext.jpg,2.158732,0.0,circularblurringext,maba09021998,001,2022-03-29_10h03.45.236,ratings,2022.1.1,Win32,60.09615385
-1.573033708,1.587,-2.378277154,2.786,0,223,223,310,1,455_34a7d8167619d110206c369e3f7dce8a3f99db763a9d8e2b956501d3_circblurint.jpg,-2.526412,-0.3827896,circularblurringint,maba09021998,001,2022-03-29_10h03.45.236,ratings,2022.1.1,Win32,60.09615385
1.460674157,1.61,0.458801498,2.209,0,224,224,427,1,694_7a14b8ab7c564dcb0f628c4de7f6cb54e4c5f6601f774bf167641c37_bw.jpg,1.819588,0.116144,blackwhite,maba09021998,001,2022-03-29_10h03.45.236,ratings,2022.1.1,Win32,60.09615385
0.449438202,1.561,1.582397004,2.079,0,225,225,190,1,369_c99797771115d7627d4abe3415f814497288f91a7be1a04c17c776b9_circblurint.jpg,3.619824,-0.174216,circularblurringint,maba09021998,001,2022-03-29_10h03.45.236,ratings,2022.1.1,Win32,60.09615385
-2.425093633,1.358,-2.940074906,2.056,0,226,226,553,1,1014_a5c212ca979d482cf94c2db7697aba75620391a64b030ab7ad2bbecf_bw.jpg,-3.174604,-1.374372,blackwhite,maba09021998,001,2022-03-29_10h03.45.236,ratings,2022.1.1,Win32,60.09615385
-2.799625468,2.092,0.365168539,2.806,0,227,227,394,1,663_aaf52107fe3a86392530d88b34e86f9d2b6820714cad98d1e3c2cb67_circblurint.jpg,2.58766,0.0918696,circularblurringint,maba09021998,001,2022-03-29_10h03.45.236,ratings,2022.1.1,Win32,60.09615385
-2.275280899,1.642,-1.282771536,2.323,0,228,228,225,1,403_57ac47f43882fc031a6067b1a388c0b2cbe8708dcbd2ff1019932eff_blur.jpg,-3.333332,-1.396824,blurring,maba09021998,001,2022-03-29_10h03.45.236,ratings,2022.1.1,Win32,60.09615385
-0.252808989,2.857,-2.031835206,3.375,0,229,229,212,1,394_8e3a0cb945144d53bd1ace04b6256237ed9dcbbd9cb83f8a4886b0e6_edges.jpg,-2.593884,2.651956,edges,maba09021998,001,2022-03-29_10h03.45.236,ratings,2022.1.1,Win32,60.09615385
-2.462546816,2.102,-0.823970037,2.573,0,230,230,514,1,858_2f6539ee36aba48c38dc716d4f7c3ae93367d6ddf23ab41745d4172c_circblurint.jpg,0.0623832,0.176752,circularblurringint,maba09021998,001,2022-03-29_10h03.45.236,ratings,2022.1.1,Win32,60.09615385
1.348314607,1.322,1.376404494,1.989,0,231,231,112,1,293_3dfdfafc0c6a54b2da7453750ac281f7718c0b3337b0a74c4563d6bd_circblurint.jpg,-2.574524,2.632596,circularblurringint,maba09021998,001,2022-03-29_10h03.45.236,ratings,2022.1.1,Win32,60.09615385
-0.037453184,2.759,1.91011236,3.391,0,232,232,588,1,1228_557412d34d6a70b7c5d222e030aa485b351a4574e8ba1a3112d1d13d_orig.jpg,2.137444,0.703464,original,maba09021998,001,2022-03-29_10h03.45.236,ratings,2022.1.1,Win32,60.09615385
-2.5,1.64,-1.563670412,2.242,0,233,233,593,1,1228_557412d34d6a70b7c5d222e030aa485b351a4574e8ba1a3112d1d13d_circblurext.jpg,2.137444,0.703464,circularblurringext,maba09021998,001,2022-03-29_10h03.45.236,ratings,2022.1.1,Win32,60.09615385
0.505617978,2.258,-1.357677903,2.944,0,234,234,382,1,640_0ddb4981a5f5842ed5b4f7ef941be53779189df5e718b1fc5475ad80_circblurint.jpg,2.571428,-1.873016,circularblurringint,maba09021998,001,2022-03-29_10h03.45.236,ratings,2022.1.1,Win32,60.09615385
-2.368913858,8.103,-0.926966292,8.751,0,235,235,567,1,1037_e2eb929a6de79a63ce6cfe5321fcb74a203b134e4094932d90b01d99_blur.jpg,2.651956,0.0,blurring,maba09021998,001,2022-03-29_10h03.45.236,ratings,2022.1.1,Win32,60.09615385
-2.640449438,4.161,-1.853932584,4.689,0,236,236,251,1,414_0187bdf7007109b487865b6a9d388997a6817acf052a6a7cdd5b39d9_circblurext.jpg,-2.786708,-1.133056,circularblurringext,maba09021998,001,2022-03-29_10h03.45.236,ratings,2022.1.1,Win32,60.09615385
-2.078651685,3.742,0.074906367,4.772,0,237,237,522,1,877_cab3efed0c9ff4552037df6c1ea4ea9713f915c94592a14dbf2799da_orig.jpg,3.174604,0.3174604,original,maba09021998,001,2022-03-29_10h03.45.236,ratings,2022.1.1,Win32,60.09615385
-0.514981273,1.757,-1.470037453,2.653,0,238,238,208,1,381_5935a9f9796adce2f1539af6c75bcdc0c80d847a2ce9b77cf59b7672_circblurint.jpg,-1.327432,-0.442476,circularblurringint,maba09021998,001,2022-03-29_10h03.45.236,ratings,2022.1.1,Win32,60.09615385
-2.668539326,1.407,-1.779026217,1.986,0,239,239,313,1,459_46e25de472bb056cb470716d30937415f7344bfc4354d6eb710d8c9f_bw.jpg,0.03174604,0.0,blackwhite,maba09021998,001,2022-03-29_10h03.45.236,ratings,2022.1.1,Win32,60.09615385
-3.277153558,1.364,-1.713483146,1.958,0,240,240,316,1,459_46e25de472bb056cb470716d30937415f7344bfc4354d6eb710d8c9f_circblurint.jpg,0.03174604,0.0,circularblurringint,maba09021998,001,2022-03-29_10h03.45.236,ratings,2022.1.1,Win32,60.09615385
-2.331460674,3.256,0.337078652,3.863,0,241,241,449,1,709_69c01dcde028a2a1a913f1a2a5026ae1748484f75c89217a040c6791_circblurext.jpg,1.432444,-0.01935732,circularblurringext,maba09021998,001,2022-03-29_10h03.45.236,ratings,2022.1.1,Win32,60.09615385
0.084269663,1.839,-0.674157303,2.359,0,242,242,121,1,347_27f0e47c2722605b950ccf9fa900f78271e4c3c874064ab5dacac160_bw.jpg,1.838948,0.3097172,blackwhite,maba09021998,001,2022-03-29_10h03.45.236,ratings,2022.1.1,Win32,60.09615385
-1.535580524,1.445,-0.299625468,2.096,0,243,243,477,1,748_e519892faa7c772a0afaf9eeff36cf0e411574027ab3d9aa4947a048_blur.jpg,-1.813112,3.307432,blurring,maba09021998,001,2022-03-29_10h03.45.236,ratings,2022.1.1,Win32,60.09615385
1.189138577,3.46,1.451310861,4.072,0,244,244,174,1,368_6507b94d7d0199f14efd3706db30c9c44b96085f84e9cc7792e3e0ae_orig.jpg,1.959544,0.400336,original,maba09021998,001,2022-03-29_10h03.45.236,ratings,2022.1.1,Win32,60.09615385
-1.329588015,2.929,1.039325843,3.491,0,245,245,20,1,48_2cc936b2483ab2944c9158e163342b874ef6c1492fd8fca08c0e096e_edges.jpg,-1.264224,-0.779604,edges,maba09021998,001,2022-03-29_10h03.45.236,ratings,2022.1.1,Win32,60.09615385
-0.720973783,2.361,0.608614232,2.94,0,246,246,411,1,687_e3b018945792a574962235c88c553b7c318c75eec2596478e8a7b877_blur.jpg,3.63918,-0.42586,blurring,maba09021998,001,2022-03-29_10h03.45.236,ratings,2022.1.1,Win32,60.09615385
0.58988764,34.443,-1.142322097,35.328,0,247,247,437,1,694_f80f33613b268beffd6c044537cf3b44a84683d6e889bc37b8e9c34b_circblurext.jpg,-0.3785616,3.34728,circularblurringext,maba09021998,001,2022-03-29_10h03.45.236,ratings,2022.1.1,Win32,60.09615385
-2.649812734,1.556,-2.228464419,2.239,0,248,248,62,1,156_08e8cf8f04630e9213e610580de73f51572d1d589878648700bae4dc_edges.jpg,2.222224,0.0,edges,maba09021998,001,2022-03-29_10h03.45.236,ratings,2022.1.1,Win32,60.09615385
-2.593632959,2.656,-1.001872659,3.338,0,249,249,153,1,355_00a76f54934d36566dd0e7b091b8aa6a56d8e6b32d349aa578a10b45_blur.jpg,2.910052,0.3439152,blurring,maba09021998,001,2022-03-29_10h03.45.236,ratings,2022.1.1,Win32,60.09615385
0.046816479,6.32,-0.646067416,7.285,0,250,250,483,1,759_95e1c46ed9a337414d5c8eada8fa8b9632e18751f5ce6ed587806e91_blur.jpg,2.126984,0.0,blurring,maba09021998,001,2022-03-29_10h03.45.236,ratings,2022.1.1,Win32,60.09615385
-2.303370787,1.197,0.149812734,1.892,0,251,251,163,1,361_b5541309527dc3c2422f45a95ebb0ed32005e6fe10d0489a1ff1fbdc_bw.jpg,-3.987612,-0.2516452,blackwhite,maba09021998,001,2022-03-29_10h03.45.236,ratings,2022.1.1,Win32,60.09615385
-0.945692884,3.856,0.63670412,5.17,0,252,252,562,1,1022_cf035e583d41a856836f8b0ae314ecbe79dffd9e40ef6a08cc26028f_circblurint.jpg,-0.2516452,3.05846,circularblurringint,maba09021998,001,2022-03-29_10h03.45.236,ratings,2022.1.1,Win32,60.09615385
-1.254681648,2.82,2.537453184,3.405,0,253,253,590,1,1228_557412d34d6a70b7c5d222e030aa485b351a4574e8ba1a3112d1d13d_edges.jpg,2.137444,0.703464,edges,maba09021998,001,2022-03-29_10h03.45.236,ratings,2022.1.1,Win32,60.09615385
-0.74906367,3.206,1.282771536,3.858,0,254,254,297,1,449_9c1e990a3480e5b51430fe76b0188e69ba2468fd6a866b88b2d0dd75_blur.jpg,0.095238,0.03174604,blurring,maba09021998,001,2022-03-29_10h03.45.236,ratings,2022.1.1,Win32,60.09615385
-2.397003745,1.642,-2.509363296,2.257,0,255,255,329,1,468_8b69b13120daebadd8a4a3166e1419f2404395cba231307a4efa9fde_circblurext.jpg,2.031744,0.2539684,circularblurringext,maba09021998,001,2022-03-29_10h03.45.236,ratings,2022.1.1,Win32,60.09615385
0.458801498,3.554,-3.127340824,4.901,0,256,256,289,1,442_7449d79dae5d652af9b2429872cabdef938646ba024db2f431b3b28d_bw.jpg,1.619048,0.126984,blackwhite,maba09021998,001,2022-03-29_10h03.45.236,ratings,2022.1.1,Win32,60.09615385
-2.612359551,4.439,-1.029962547,4.953,0,257,257,495,1,824_b1d91cc824ce0d3d383d3147da88d3d6dbaf6be918bab79e3ec8f501_blur.jpg,-3.645176,-1.432784,blurring,maba09021998,001,2022-03-29_10h03.45.236,ratings,2022.1.1,Win32,60.09615385
-2.771535581,1.807,-2.275280899,2.24,0,258,258,478,1,748_e519892faa7c772a0afaf9eeff36cf0e411574027ab3d9aa4947a048_circblurint.jpg,-1.813112,3.307432,circularblurringint,maba09021998,001,2022-03-29_10h03.45.236,ratings,2022.1.1,Win32,60.09615385
-1.235955056,2.31,-1.170411985,2.776,0,259,259,105,1,284_cdcbd54fc995081ac95c8b2c37a19cebb341f61a8eb268cee1623492_blur.jpg,-1.015872,2.095236,blurring,maba09021998,001,2022-03-29_10h03.45.236,ratings,2022.1.1,Win32,60.09615385
-3.146067416,4.848,0.355805243,5.432,0,260,260,535,1,986_a77edb21e78bc3a6aa7406517824596b3496ad6c657b6befb84cf370_bw.jpg,-3.906316,-0.60496,blackwhite,maba09021998,001,2022-03-29_10h03.45.236,ratings,2022.1.1,Win32,60.09615385
-2.509363296,6.003,0.009363296,7.039,0,261,261,544,1,1005_b980c0747d20935bc63cc27a9e05ce2ff5bae98f859872ec48edd7f5_circblurint.jpg,3.428572,-0.476192,circularblurringint,maba09021998,001,2022-03-29_10h03.45.236,ratings,2022.1.1,Win32,60.09615385
-2.481273408,1.679,-2.059925094,2.241,0,262,262,255,1,416_5eb54976bb41ce2a6d129ef985f792e716f010fb9b69b15f50f5d2db_blur.jpg,-2.58766,2.602972,blurring,maba09021998,001,2022-03-29_10h03.45.236,ratings,2022.1.1,Win32,60.09615385
-2.528089888,6.367,0.936329588,6.936,0,263,263,94,1,258_d26019382777d2159a974a7654923e71598135ce2cd710cea1f92865_circblurint.jpg,3.497684,-0.61104,circularblurringint,maba09021998,001,2022-03-29_10h03.45.236,ratings,2022.1.1,Win32,60.09615385
-2.790262172,2.506,-1.676029963,3.043,0,264,264,490,1,818_877aae033c31e3bbca4486321a5307f87cf53c576c546462d3daf194_circblurint.jpg,-1.277584,0.619436,circularblurringint,maba09021998,001,2022-03-29_10h03.45.236,ratings,2022.1.1,Win32,60.09615385
-1.638576779,3.972,0.187265918,4.574,0,265,265,59,1,137_0e6a04243c0a42a5e2528a2d181255ca2a4b7bd6e7978c5c2059c69f_circblurext.jpg,-0.95238,2.095236,circularblurringext,maba09021998,001,2022-03-29_10h03.45.236,ratings,2022.1.1,Win32,60.09615385
1.11423221,1.253,-1.470037453,2.036,0,266,266,120,1,347_27f0e47c2722605b950ccf9fa900f78271e4c3c874064ab5dacac160_orig.jpg,1.838948,0.3097172,original,maba09021998,001,2022-03-29_10h03.45.236,ratings,2022.1.1,Win32,60.09615385
-2.359550562,3.657,-1.70411985,4.271,0,267,267,337,1,492_a1a4d288d3bc486c83c3b6a835c42891989f5ba781633932298a7676_bw.jpg,3.406892,-0.44522,blackwhite,maba09021998,001,2022-03-29_10h03.45.236,ratings,2022.1.1,Win32,60.09615385
-0.599250936,3.606,-1.011235955,4.173,0,268,268,358,1,500_3b520c7f352afa1a9f8c07e56cc0588cdc04d25ff6e7b602b5e280cb_circblurint.jpg,-0.8328,3.11766,circularblurringint,maba09021998,001,2022-03-29_10h03.45.236,ratings,2022.1.1,Win32,60.09615385
0.47752809,3.058,1.43258427,4.072,0,269,269,516,1,860_05c4e22518a30d3d2add458a8fc6488f87b9b02dd8e385ded939f025_orig.jpg,1.955092,0.3097172,original,maba09021998,001,2022-03-29_10h03.45.236,ratings,2022.1.1,Win32,60.09615385
-1.310861423,3.944,0.177902622,4.656,0,270,270,596,1,1239_cee00457f4cfb76a407b12fd5ad714d440a4614c1e5467ee16caf618_edges.jpg,-0.03174604,0.190476,edges,maba09021998,001,2022-03-29_10h03.45.236,ratings,2022.1.1,Win32,60.09615385
-2.518726592,8.768,-0.95505618,10.217,0,271,271,361,1,508_a7a9519cdc7aad6844030f4e6cd96cffd1b9c49b71e20ea52789bda2_bw.jpg,-3.000388,-1.29694,blackwhite,maba09021998,001,2022-03-29_10h03.45.236,ratings,2022.1.1,Win32,60.09615385
0.271535581,2.414,0.617977528,3.063,0,272,272,548,1,1010_06d15f44b979c086561137000ec070ba4cd479856f92840a7850b2bf_edges.jpg,0.189786,-0.189786,edges,maba09021998,001,2022-03-29_10h03.45.236,ratings,2022.1.1,Win32,60.09615385
-0.187265918,2.177,0.992509363,2.859,0,273,273,86,1,243_beddb302dcb21071d88c8d2cab07002050d36b3001ef28f89389fa56_edges.jpg,-0.3450656,-0.2070392,edges,maba09021998,001,2022-03-29_10h03.45.236,ratings,2022.1.1,Win32,60.09615385
-1.170411985,10.199,-1.760299625,11.382,0,274,274,83,1,242_85283f6935a89812ab229dcad9ba184529c9242ac3106d768ecf3ab3_circblurext.jpg,2.14918,-0.2949852,circularblurringext,maba09021998,001,2022-03-29_10h03.45.236,ratings,2022.1.1,Win32,60.09615385
0.758426966,2.425,2.172284644,3.041,0,275,275,456,1,720_483c541c48959a597fcf44320941afaf8b7695105f90d65b5f6b30f2_orig.jpg,2.158732,-0.2539684,original,maba09021998,001,2022-03-29_10h03.45.236,ratings,2022.1.1,Win32,60.09615385
-0.833333333,1.805,0.702247191,2.404,0,276,276,341,1,492_a1a4d288d3bc486c83c3b6a835c42891989f5ba781633932298a7676_circblurext.jpg,3.406892,-0.44522,circularblurringext,maba09021998,001,2022-03-29_10h03.45.236,ratings,2022.1.1,Win32,60.09615385
0.561797753,3.107,-1.217228464,4.591,0,277,277,60,1,156_08e8cf8f04630e9213e610580de73f51572d1d589878648700bae4dc_orig.jpg,2.222224,0.0,original,maba09021998,001,2022-03-29_10h03.45.236,ratings,2022.1.1,Win32,60.09615385
-0.365168539,1.859,-1.788389513,2.472,0,278,278,389,1,646_577760d718dab44c6f04d77408c5644a120065ce07a9503957d0850a_circblurext.jpg,-2.690668,2.61324,circularblurringext,maba09021998,001,2022-03-29_10h03.45.236,ratings,2022.1.1,Win32,60.09615385
-0.168539326,1.407,-2.368913858,2.008,0,279,279,309,1,455_34a7d8167619d110206c369e3f7dce8a3f99db763a9d8e2b956501d3_blur.jpg,-2.526412,-0.3827896,blurring,maba09021998,001,2022-03-29_10h03.45.236,ratings,2022.1.1,Win32,60.09615385
-1.563670412,2.97,0.140449438,3.62,0,280,280,536,1,986_a77edb21e78bc3a6aa7406517824596b3496ad6c657b6befb84cf370_edges.jpg,-3.906316,-0.60496,edges,maba09021998,001,2022-03-29_10h03.45.236,ratings,2022.1.1,Win32,60.09615385
-2.106741573,1.405,0.084269663,2.055,0,281,281,143,1,353_44e285740cb41818482ac93fc5fbd72c18029444a1d7506c9fc053e7_circblurext.jpg,-3.232676,-0.87108,circularblurringext,maba09021998,001,2022-03-29_10h03.45.236,ratings,2022.1.1,Win32,60.09615385
-2.986891386,1.148,-0.63670412,1.894,0,282,282,304,1,453_54f106fd1d4b65fa4aa347407127fc30d49f791e81aee3a0bbe44489_circblurint.jpg,2.222224,0.0,circularblurringint,maba09021998,001,2022-03-29_10h03.45.236,ratings,2022.1.1,Win32,60.09615385
-2.93071161,1.658,-0.205992509,2.161,0,283,283,425,1,692_e3e3bf88684fbbcdb9849a4147f9e2fcd39b0f083554a829aca4e9fa_circblurext.jpg,-0.44522,3.135888,circularblurringext,maba09021998,001,2022-03-29_10h03.45.236,ratings,2022.1.1,Win32,60.09615385
-2.827715356,1.525,-0.234082397,2.174,0,284,284,155,1,355_00a76f54934d36566dd0e7b091b8aa6a56d8e6b32d349aa578a10b45_circblurext.jpg,2.910052,0.3439152,circularblurringext,maba09021998,001,2022-03-29_10h03.45.236,ratings,2022.1.1,Win32,60.09615385
-0.440074906,1.591,-1.039325843,2.293,0,285,285,235,1,410_9633c4ff6e8888fcfca59a60ca86e9606d3e0736500a254101bdf295_bw.jpg,-0.3677892,2.981028,blackwhite,maba09021998,001,2022-03-29_10h03.45.236,ratings,2022.1.1,Win32,60.09615385
-1.198501873,3.09,1.142322097,3.705,0,286,286,448,1,709_69c01dcde028a2a1a913f1a2a5026ae1748484f75c89217a040c6791_circblurint.jpg,1.432444,-0.01935732,circularblurringint,maba09021998,001,2022-03-29_10h03.45.236,ratings,2022.1.1,Win32,60.09615385
-2.996254682,2.037,-0.758426966,2.523,0,287,287,497,1,824_b1d91cc824ce0d3d383d3147da88d3d6dbaf6be918bab79e3ec8f501_circblurext.jpg,-3.645176,-1.432784,circularblurringext,maba09021998,001,2022-03-29_10h03.45.236,ratings,2022.1.1,Win32,60.09615385
-2.041198502,2.857,-0.449438202,3.493,0,288,288,280,1,440_9bf7e8609729bf888835168834da6c3ff30b75d0d4f36e2ee6918bcc_circblurint.jpg,-2.284164,2.710028,circularblurringint,maba09021998,001,2022-03-29_10h03.45.236,ratings,2022.1.1,Win32,60.09615385
-2.443820225,1.316,-0.702247191,1.991,0,289,289,551,1,1010_06d15f44b979c086561137000ec070ba4cd479856f92840a7850b2bf_circblurext.jpg,0.189786,-0.189786,circularblurringext,maba09021998,001,2022-03-29_10h03.45.236,ratings,2022.1.1,Win32,60.09615385
-1.956928839,2.391,-0.823970037,2.94,0,290,290,397,1,683_a004ad18331da968da5debdd15e1447dd7748750af0bc6c57b844200_bw.jpg,-2.91956,2.466524,blackwhite,maba09021998,001,2022-03-29_10h03.45.236,ratings,2022.1.1,Win32,60.09615385
-1.413857678,3.373,-0.168539326,3.989,0,291,291,158,1,358_157f8ac929713531a15b1ecf115e7b659cb90e83d675251e368d165f_edges.jpg,-3.777776,-0.571428,edges,maba09021998,001,2022-03-29_10h03.45.236,ratings,2022.1.1,Win32,60.09615385
-2.893258427,1.221,0.037453184,2.185,0,292,292,474,1,748_e519892faa7c772a0afaf9eeff36cf0e411574027ab3d9aa4947a048_orig.jpg,-1.813112,3.307432,original,maba09021998,001,2022-03-29_10h03.45.236,ratings,2022.1.1,Win32,60.09615385
-1.816479401,98.653,-0.683520599,103.085,0,293,293,376,1,620_9674719009d75dcfeaed7f15932c43e1fd1af5e25d47b8aadd61efe2_circblurint.jpg,-0.561364,1.142084,circularblurringint,maba09021998,001,2022-03-29_10h03.45.236,ratings,2022.1.1,Win32,60.09615385
-2.883895131,5.952,0.411985019,14.047,0,294,294,492,1,824_b1d91cc824ce0d3d383d3147da88d3d6dbaf6be918bab79e3ec8f501_orig.jpg,-3.645176,-1.432784,original,maba09021998,001,2022-03-29_10h03.45.236,ratings,2022.1.1,Win32,60.09615385
-2.462546816,1.704,-0.561797753,2.668,0,295,295,307,1,455_34a7d8167619d110206c369e3f7dce8a3f99db763a9d8e2b956501d3_bw.jpg,-2.526412,-0.3827896,blackwhite,maba09021998,001,2022-03-29_10h03.45.236,ratings,2022.1.1,Win32,60.09615385
-2.593632959,2.276,-0.074906367,4.672,0,296,296,515,1,858_2f6539ee36aba48c38dc716d4f7c3ae93367d6ddf23ab41745d4172c_circblurext.jpg,0.0623832,0.176752,circularblurringext,maba09021998,001,2022-03-29_10h03.45.236,ratings,2022.1.1,Win32,60.09615385
0.131086142,36.922,0.140449438,38.326,0,297,297,230,1,407_578d31d32e806706dde2563213f130b90e621abfed0e47ecabd85d27_edges.jpg,3.5873,-0.444444,edges,maba09021998,001,2022-03-29_10h03.45.236,ratings,2022.1.1,Win32,60.09615385
-2.031835206,2.075,-2.162921348,3.053,0,298,298,82,1,242_85283f6935a89812ab229dcad9ba184529c9242ac3106d768ecf3ab3_circblurint.jpg,2.14918,-0.2949852,circularblurringint,maba09021998,001,2022-03-29_10h03.45.236,ratings,2022.1.1,Win32,60.09615385
-1.123595506,2.29,0.112359551,4.586,0,299,299,248,1,414_0187bdf7007109b487865b6a9d388997a6817acf052a6a7cdd5b39d9_edges.jpg,-2.786708,-1.133056,edges,maba09021998,001,2022-03-29_10h03.45.236,ratings,2022.1.1,Win32,60.09615385
1.413857678,2.962,1.835205993,5.457,0,300,300,288,1,442_7449d79dae5d652af9b2429872cabdef938646ba024db2f431b3b28d_orig.jpg,1.619048,0.126984,original,maba09021998,001,2022-03-29_10h03.45.236,ratings,2022.1.1,Win32,60.09615385
-1.282771536,3.072,0.63670412,3.659,0,301,301,407,1,686_6745b57686ad5d1bd6cf3e7ed5bc0243a154f8939e88e30321dfcfdb_circblurext.jpg,-1.523808,3.650792,circularblurringext,maba09021998,001,2022-03-29_10h03.45.236,ratings,2022.1.1,Win32,60.09615385
-2.162921348,495.325,0.280898876,496.158,0,302,302,211,1,394_8e3a0cb945144d53bd1ace04b6256237ed9dcbbd9cb83f8a4886b0e6_bw.jpg,-2.593884,2.651956,blackwhite,maba09021998,001,2022-03-29_10h03.45.236,ratings,2022.1.1,Win32,60.09615385
1.217228464,1.644,-1.179775281,2.658,0,303,303,16,1,39_2fafccaa4dc69045a05845f59c6b3cd2edcf7e0e0c108b24e553afe0_circblurint.jpg,2.022756,0.463548,circularblurringint,maba09021998,001,2022-03-29_10h03.45.236,ratings,2022.1.1,Win32,60.09615385
-1.676029963,13.857,0.093632959,14.671,0,304,304,264,1,431_ab5a1dbbe9292ac7f74e276cdabcd372e2c1f852ff34bf7cc6646ef8_orig.jpg,3.102584,0.354334,original,maba09021998,001,2022-03-29_10h03.45.236,ratings,2022.1.1,Win32,60.09615385
-1.86329588,17.695,-0.018726592,18.394,0,305,305,476,1,748_e519892faa7c772a0afaf9eeff36cf0e411574027ab3d9aa4947a048_edges.jpg,-1.813112,3.307432,edges,maba09021998,001,2022-03-29_10h03.45.236,ratings,2022.1.1,Win32,60.09615385
1.338951311,1.741,-0.308988764,2.353,0,306,306,110,1,293_3dfdfafc0c6a54b2da7453750ac281f7718c0b3337b0a74c4563d6bd_edges.jpg,-2.574524,2.632596,edges,maba09021998,001,2022-03-29_10h03.45.236,ratings,2022.1.1,Win32,60.09615385
0.702247191,2.156,-1.835205993,3.14,0,307,307,428,1,694_7a14b8ab7c564dcb0f628c4de7f6cb54e4c5f6601f774bf167641c37_edges.jpg,1.819588,0.116144,edges,maba09021998,001,2022-03-29_10h03.45.236,ratings,2022.1.1,Win32,60.09615385
-2.013108614,19.707,-0.037453184,20.361,0,308,308,246,1,414_0187bdf7007109b487865b6a9d388997a6817acf052a6a7cdd5b39d9_orig.jpg,-2.786708,-1.133056,original,maba09021998,001,2022-03-29_10h03.45.236,ratings,2022.1.1,Win32,60.09615385
-0.936329588,10.181,1.516853933,10.867,0,309,309,577,1,1061_665178b9cb0bc869cc2e2b68def4838db04e66f9531098fb75875a09_bw.jpg,0.3492064,-0.3174604,blackwhite,maba09021998,001,2022-03-29_10h03.45.236,ratings,2022.1.1,Win32,60.09615385
-0.112359551,2.968,-0.608614232,3.587,0,310,310,491,1,818_877aae033c31e3bbca4486321a5307f87cf53c576c546462d3daf194_circblurext.jpg,-1.277584,0.619436,circularblurringext,maba09021998,001,2022-03-29_10h03.45.236,ratings,2022.1.1,Win32,60.09615385
-0.327715356,1.112,-0.327715356,1.641,0,311,311,299,1,449_9c1e990a3480e5b51430fe76b0188e69ba2468fd6a866b88b2d0dd75_circblurext.jpg,0.095238,0.03174604,circularblurringext,maba09021998,001,2022-03-29_10h03.45.236,ratings,2022.1.1,Win32,60.09615385
1.020599251,2.508,-1.198501873,3.827,0,312,312,521,1,860_05c4e22518a30d3d2add458a8fc6488f87b9b02dd8e385ded939f025_circblurext.jpg,1.955092,0.3097172,circularblurringext,maba09021998,001,2022-03-29_10h03.45.236,ratings,2022.1.1,Win32,60.09615385
-1.535580524,1.307,-0.580524345,3.888,0,313,313,538,1,986_a77edb21e78bc3a6aa7406517824596b3496ad6c657b6befb84cf370_circblurint.jpg,-3.906316,-0.60496,circularblurringint,maba09021998,001,2022-03-29_10h03.45.236,ratings,2022.1.1,Win32,60.09615385
0.524344569,1.553,0.683520599,2.09,0,314,314,519,1,860_05c4e22518a30d3d2add458a8fc6488f87b9b02dd8e385ded939f025_blur.jpg,1.955092,0.3097172,blurring,maba09021998,001,2022-03-29_10h03.45.236,ratings,2022.1.1,Win32,60.09615385
-1.254681648,1.66,0.177902622,2.393,0,315,315,46,1,92_5d20d78a8e57e628c6930676473a4e0a485e715841efd6286c660020_circblurint.jpg,2.126984,0.0,circularblurringint,maba09021998,001,2022-03-29_10h03.45.236,ratings,2022.1.1,Win32,60.09615385
-0.917602996,3.603,-1.22659176,4.502,0,316,316,0,1,13_771f4fcf0a212d25d6a78565e7f34cc5ddd823e7afbdc77ef063326e_orig.jpg,2.190476,0.0,original,maba09021998,001,2022-03-29_10h03.45.236,ratings,2022.1.1,Win32,60.09615385
-0.168539326,2.273,-1.760299625,2.859,0,317,317,238,1,410_9633c4ff6e8888fcfca59a60ca86e9606d3e0736500a254101bdf295_circblurint.jpg,-0.3677892,2.981028,circularblurringint,maba09021998,001,2022-03-29_10h03.45.236,ratings,2022.1.1,Win32,60.09615385
0.009363296,1.191,-2.556179775,1.724,0,318,318,182,1,369_98db62a1bdabfd1bc551180da6658005b461585cd21614633cf76470_edges.jpg,2.190476,-0.03174604,edges,maba09021998,001,2022-03-29_10h03.45.236,ratings,2022.1.1,Win32,60.09615385
0.31835206,2.007,-1.563670412,4.188,0,319,319,53,1,112_b6a4ce721c2e42943d7d8b168751d74cd2f372b1cd4fed5a4404faec_circblurext.jpg,2.107036,0.505688,circularblurringext,maba09021998,001,2022-03-29_10h03.45.236,ratings,2022.1.1,Win32,60.09615385
-0.964419476,1.642,0.383895131,2.324,0,320,320,406,1,686_6745b57686ad5d1bd6cf3e7ed5bc0243a154f8939e88e30321dfcfdb_circblurint.jpg,-1.523808,3.650792,circularblurringint,maba09021998,001,2022-03-29_10h03.45.236,ratings,2022.1.1,Win32,60.09615385
1.329588015,4.438,1.207865169,5.737,0,321,321,430,1,694_7a14b8ab7c564dcb0f628c4de7f6cb54e4c5f6601f774bf167641c37_circblurint.jpg,1.819588,0.116144,circularblurringint,maba09021998,001,2022-03-29_10h03.45.236,ratings,2022.1.1,Win32,60.09615385
-0.758426966,2.044,0.31835206,2.573,0,322,322,598,1,1239_cee00457f4cfb76a407b12fd5ad714d440a4614c1e5467ee16caf618_circblurint.jpg,-0.03174604,0.190476,circularblurringint,maba09021998,001,2022-03-29_10h03.45.236,ratings,2022.1.1,Win32,60.09615385
-0.561797753,1.472,-0.674157303,1.937,0,323,323,464,1,736_bb85db1bcda8eb34299aa5791ac65a0a7c343266eb2d6e6e328ec0e1_edges.jpg,3.650792,-0.03174604,edges,maba09021998,001,2022-03-29_10h03.45.236,ratings,2022.1.1,Win32,60.09615385
-0.533707865,2.105,-0.449438202,2.622,0,324,324,196,1,379_eeaa6d9bf5a4ef205dc48bc505cf3a7f24ea86e99af9b371e03602a7_circblurint.jpg,-0.3926308,2.88936,circularblurringint,maba09021998,001,2022-03-29_10h03.45.236,ratings,2022.1.1,Win32,60.09615385
-0.683520599,1.95,-0.383895131,2.469,0,325,325,171,1,365_45a719cabbc9aa308c4fcb30d529489c6966ac4073874af84f665c61_blur.jpg,2.507936,-1.968252,blurring,maba09021998,001,2022-03-29_10h03.45.236,ratings,2022.1.1,Win32,60.09615385
-0.608614232,1.276,-0.627340824,1.741,0,326,326,345,1,494_5c6c3b85a2734a43c24bfe337d42ffcc82b7347227804d01c784cef4_blur.jpg,0.03871468,0.0,blurring,maba09021998,001,2022-03-29_10h03.45.236,ratings,2022.1.1,Win32,60.09615385
-1.526217228,1.486,-0.224719101,2.222,0,327,327,388,1,646_577760d718dab44c6f04d77408c5644a120065ce07a9503957d0850a_circblurint.jpg,-2.690668,2.61324,circularblurringint,maba09021998,001,2022-03-29_10h03.45.236,ratings,2022.1.1,Win32,60.09615385
-1.554307116,2.173,0.496254682,2.743,0,328,328,290,1,442_7449d79dae5d652af9b2429872cabdef938646ba024db2f431b3b28d_edges.jpg,1.619048,0.126984,edges,maba09021998,001,2022-03-29_10h03.45.236,ratings,2022.1.1,Win32,60.09615385
-0.655430712,1.508,-0.571161049,1.874,0,329,329,325,1,468_8b69b13120daebadd8a4a3166e1419f2404395cba231307a4efa9fde_bw.jpg,2.031744,0.2539684,blackwhite,maba09021998,001,2022-03-29_10h03.45.236,ratings,2022.1.1,Win32,60.09615385
-0.599250936,1.292,-0.31835206,1.905,0,330,330,311,1,455_34a7d8167619d110206c369e3f7dce8a3f99db763a9d8e2b956501d3_circblurext.jpg,-2.526412,-0.3827896,circularblurringext,maba09021998,001,2022-03-29_10h03.45.236,ratings,2022.1.1,Win32,60.09615385
-0.458801498,1.127,-0.580524345,1.595,0,331,331,323,1,460_e06b3af7ff2f2bfb5f9b6e3d5dc25b9aaa40b84823fac8fd934621bd_circblurext.jpg,-3.430992,-1.607468,circularblurringext,maba09021998,001,2022-03-29_10h03.45.236,ratings,2022.1.1,Win32,60.09615385
-0.514981273,0.922,-0.402621723,1.454,0,332,332,113,1,293_3dfdfafc0c6a54b2da7453750ac281f7718c0b3337b0a74c4563d6bd_circblurext.jpg,-2.574524,2.632596,circularblurringext,maba09021998,001,2022-03-29_10h03.45.236,ratings,2022.1.1,Win32,60.09615385
-0.355805243,2.239,-0.346441948,2.706,0,333,333,106,1,284_cdcbd54fc995081ac95c8b2c37a19cebb341f61a8eb268cee1623492_circblurint.jpg,-1.015872,2.095236,circularblurringint,maba09021998,001,2022-03-29_10h03.45.236,ratings,2022.1.1,Win32,60.09615385
-0.926966292,1.259,-1.310861423,1.876,0,334,334,419,1,692_7d7eaf20e6de8956f0fca7500ace97a8599aa8b605a7d690cdb28724_circblurext.jpg,-2.063492,-1.26984,circularblurringext,maba09021998,001,2022-03-29_10h03.45.236,ratings,2022.1.1,Win32,60.09615385
0.720973783,1.224,0.411985019,1.76,0,335,335,339,1,492_a1a4d288d3bc486c83c3b6a835c42891989f5ba781633932298a7676_blur.jpg,3.406892,-0.44522,blurring,maba09021998,001,2022-03-29_10h03.45.236,ratings,2022.1.1,Win32,60.09615385
-1.685393258,6.457,0.168539326,7.084,0,336,336,188,1,369_c99797771115d7627d4abe3415f814497288f91a7be1a04c17c776b9_edges.jpg,3.619824,-0.174216,edges,maba09021998,001,2022-03-29_10h03.45.236,ratings,2022.1.1,Win32,60.09615385
1.760299625,3.122,-2.228464419,3.885,0,337,337,25,1,59_8568373b727f29d67ba6ce4c360dd918c8b08b13495fca56bdda5e82_bw.jpg,2.064896,0.505688,blackwhite,maba09021998,001,2022-03-29_10h03.45.236,ratings,2022.1.1,Win32,60.09615385
1.020599251,1.943,-1.151685393,2.539,0,338,338,576,1,1061_665178b9cb0bc869cc2e2b68def4838db04e66f9531098fb75875a09_orig.jpg,0.3492064,-0.3174604,original,maba09021998,001,2022-03-29_10h03.45.236,ratings,2022.1.1,Win32,60.09615385
-2.219101124,1.958,1.235955056,2.593,0,339,339,156,1,358_157f8ac929713531a15b1ecf115e7b659cb90e83d675251e368d165f_orig.jpg,-3.777776,-0.571428,original,maba09021998,001,2022-03-29_10h03.45.236,ratings,2022.1.1,Win32,60.09615385
-0.646067416,1.541,-0.842696629,1.907,0,340,340,328,1,468_8b69b13120daebadd8a4a3166e1419f2404395cba231307a4efa9fde_circblurint.jpg,2.031744,0.2539684,circularblurringint,maba09021998,001,2022-03-29_10h03.45.236,ratings,2022.1.1,Win32,60.09615385
-2.013108614,2.557,-0.599250936,3.256,0,341,341,565,1,1037_e2eb929a6de79a63ce6cfe5321fcb74a203b134e4094932d90b01d99_bw.jpg,2.651956,0.0,blackwhite,maba09021998,001,2022-03-29_10h03.45.236,ratings,2022.1.1,Win32,60.09615385
-2.275280899,5.137,0.018726592,5.722,0,342,342,161,1,358_157f8ac929713531a15b1ecf115e7b659cb90e83d675251e368d165f_circblurext.jpg,-3.777776,-0.571428,circularblurringext,maba09021998,001,2022-03-29_10h03.45.236,ratings,2022.1.1,Win32,60.09615385
-0.505617978,1.008,-0.561797753,1.623,0,343,343,295,1,449_9c1e990a3480e5b51430fe76b0188e69ba2468fd6a866b88b2d0dd75_bw.jpg,0.095238,0.03174604,blackwhite,maba09021998,001,2022-03-29_10h03.45.236,ratings,2022.1.1,Win32,60.09615385
-0.674157303,0.842,-0.299625468,1.341,0,344,344,410,1,687_e3b018945792a574962235c88c553b7c318c75eec2596478e8a7b877_edges.jpg,3.63918,-0.42586,edges,maba09021998,001,2022-03-29_10h03.45.236,ratings,2022.1.1,Win32,60.09615385
-0.458801498,0.641,-0.31835206,1.106,0,345,345,408,1,687_e3b018945792a574962235c88c553b7c318c75eec2596478e8a7b877_orig.jpg,3.63918,-0.42586,original,maba09021998,001,2022-03-29_10h03.45.236,ratings,2022.1.1,Win32,60.09615385
-2.003745318,1.476,-0.365168539,2.074,0,346,346,194,1,379_eeaa6d9bf5a4ef205dc48bc505cf3a7f24ea86e99af9b371e03602a7_edges.jpg,-0.3926308,2.88936,edges,maba09021998,001,2022-03-29_10h03.45.236,ratings,2022.1.1,Win32,60.09615385
-1.5917603,13.73,-0.720973783,14.414,0,347,347,384,1,646_577760d718dab44c6f04d77408c5644a120065ce07a9503957d0850a_orig.jpg,-2.690668,2.61324,original,maba09021998,001,2022-03-29_10h03.45.236,ratings,2022.1.1,Win32,60.09615385
-1.900749064,6.3,-0.627340824,6.788,0,348,348,209,1,381_5935a9f9796adce2f1539af6c75bcdc0c80d847a2ce9b77cf59b7672_circblurext.jpg,-1.327432,-0.442476,circularblurringext,maba09021998,001,2022-03-29_10h03.45.236,ratings,2022.1.1,Win32,60.09615385
-0.505617978,1.921,-0.758426966,2.472,0,349,349,96,1,267_792043debad81ce271cec5b3c3bd9d264efc13f362bec9c7a3f72fe7_orig.jpg,1.980616,0.2107036,original,maba09021998,001,2022-03-29_10h03.45.236,ratings,2022.1.1,Win32,60.09615385
1.095505618,1.627,1.479400749,2.278,0,350,350,460,1,720_483c541c48959a597fcf44320941afaf8b7695105f90d65b5f6b30f2_circblurint.jpg,2.158732,-0.2539684,circularblurringint,maba09021998,001,2022-03-29_10h03.45.236,ratings,2022.1.1,Win32,60.09615385
0.730337079,489.867,0.47752809,490.402,0,351,351,176,1,368_6507b94d7d0199f14efd3706db30c9c44b96085f84e9cc7792e3e0ae_edges.jpg,1.959544,0.400336,edges,maba09021998,001,2022-03-29_10h03.45.236,ratings,2022.1.1,Win32,60.09615385
-1.264044944,2.825,-1.825842697,3.467,0,352,352,302,1,453_54f106fd1d4b65fa4aa347407127fc30d49f791e81aee3a0bbe44489_edges.jpg,2.222224,0.0,edges,maba09021998,001,2022-03-29_10h03.45.236,ratings,2022.1.1,Win32,60.09615385
-0.131086142,1.386,-0.992509363,1.921,0,353,353,417,1,692_7d7eaf20e6de8956f0fca7500ace97a8599aa8b605a7d690cdb28724_blur.jpg,-2.063492,-1.26984,blurring,maba09021998,001,2022-03-29_10h03.45.236,ratings,2022.1.1,Win32,60.09615385
-2.312734082,1.457,-0.262172285,2.004,0,354,354,141,1,353_44e285740cb41818482ac93fc5fbd72c18029444a1d7506c9fc053e7_blur.jpg,-3.232676,-0.87108,blurring,maba09021998,001,2022-03-29_10h03.45.236,ratings,2022.1.1,Win32,60.09615385
-1.928838951,6.204,-0.243445693,6.738,0,355,355,539,1,986_a77edb21e78bc3a6aa7406517824596b3496ad6c657b6befb84cf370_circblurext.jpg,-3.906316,-0.60496,circularblurringext,maba09021998,001,2022-03-29_10h03.45.236,ratings,2022.1.1,Win32,60.09615385
0.617977528,1.474,-1.526217228,2.608,0,356,356,265,1,431_ab5a1dbbe9292ac7f74e276cdabcd372e2c1f852ff34bf7cc6646ef8_bw.jpg,3.102584,0.354334,blackwhite,maba09021998,001,2022-03-29_10h03.45.236,ratings,2022.1.1,Win32,60.09615385
-0.065543071,1.41,-1.11423221,1.943,0,357,357,369,1,616_05a637f5281666f53d4e2ef69351485fc21d629b37ee2006b2076eb6_blur.jpg,-2.380952,-0.832364,blurring,maba09021998,001,2022-03-29_10h03.45.236,ratings,2022.1.1,Win32,60.09615385
-2.303370787,1.292,0.870786517,2.472,0,358,358,138,1,353_44e285740cb41818482ac93fc5fbd72c18029444a1d7506c9fc053e7_orig.jpg,-3.232676,-0.87108,original,maba09021998,001,2022-03-29_10h03.45.236,ratings,2022.1.1,Win32,60.09615385
-1.647940075,1.94,1.404494382,2.474,0,359,359,459,1,720_483c541c48959a597fcf44320941afaf8b7695105f90d65b5f6b30f2_blur.jpg,2.158732,-0.2539684,blurring,maba09021998,001,2022-03-29_10h03.45.236,ratings,2022.1.1,Win32,60.09615385
1.235955056,1.16,1.048689139,1.775,0,360,360,409,1,687_e3b018945792a574962235c88c553b7c318c75eec2596478e8a7b877_bw.jpg,3.63918,-0.42586,blackwhite,maba09021998,001,2022-03-29_10h03.45.236,ratings,2022.1.1,Win32,60.09615385
0.973782772,2.243,1.170411985,3.122,0,361,361,390,1,663_aaf52107fe3a86392530d88b34e86f9d2b6820714cad98d1e3c2cb67_orig.jpg,2.58766,0.0918696,original,maba09021998,001,2022-03-29_10h03.45.236,ratings,2022.1.1,Win32,60.09615385
-1.610486891,4.344,-0.95505618,4.808,0,362,362,555,1,1014_a5c212ca979d482cf94c2db7697aba75620391a64b030ab7ad2bbecf_blur.jpg,-3.174604,-1.374372,blurring,maba09021998,001,2022-03-29_10h03.45.236,ratings,2022.1.1,Win32,60.09615385
-2.265917603,1.108,-0.664794007,1.788,0,363,363,597,1,1239_cee00457f4cfb76a407b12fd5ad714d440a4614c1e5467ee16caf618_blur.jpg,-0.03174604,0.190476,blurring,maba09021998,001,2022-03-29_10h03.45.236,ratings,2022.1.1,Win32,60.09615385
0.121722846,1.29,-0.720973783,1.689,0,364,364,17,1,39_2fafccaa4dc69045a05845f59c6b3cd2edcf7e0e0c108b24e553afe0_circblurext.jpg,2.022756,0.463548,circularblurringext,maba09021998,001,2022-03-29_10h03.45.236,ratings,2022.1.1,Win32,60.09615385
1.029962547,1.821,-1.292134831,2.686,0,365,365,546,1,1010_06d15f44b979c086561137000ec070ba4cd479856f92840a7850b2bf_orig.jpg,0.189786,-0.189786,original,maba09021998,001,2022-03-29_10h03.45.236,ratings,2022.1.1,Win32,60.09615385
-0.299625468,5.771,-2.153558052,6.337,0,366,366,210,1,394_8e3a0cb945144d53bd1ace04b6256237ed9dcbbd9cb83f8a4886b0e6_orig.jpg,-2.593884,2.651956,original,maba09021998,001,2022-03-29_10h03.45.236,ratings,2022.1.1,Win32,60.09615385
-0.383895131,2.545,-2.237827715,3.072,0,367,367,415,1,692_7d7eaf20e6de8956f0fca7500ace97a8599aa8b605a7d690cdb28724_bw.jpg,-2.063492,-1.26984,blackwhite,maba09021998,001,2022-03-29_10h03.45.236,ratings,2022.1.1,Win32,60.09615385
-1.741573034,17.596,-0.402621723,18.261,0,368,368,160,1,358_157f8ac929713531a15b1ecf115e7b659cb90e83d675251e368d165f_circblurint.jpg,-3.777776,-0.571428,circularblurringint,maba09021998,001,2022-03-29_10h03.45.236,ratings,2022.1.1,Win32,60.09615385
1.217228464,1.246,2.153558052,2.205,0,369,369,186,1,369_c99797771115d7627d4abe3415f814497288f91a7be1a04c17c776b9_orig.jpg,3.619824,-0.174216,original,maba09021998,001,2022-03-29_10h03.45.236,ratings,2022.1.1,Win32,60.09615385
1.06741573,3.307,-1.676029963,4.304,0,370,370,545,1,1005_b980c0747d20935bc63cc27a9e05ce2ff5bae98f859872ec48edd7f5_circblurext.jpg,3.428572,-0.476192,circularblurringext,maba09021998,001,2022-03-29_10h03.45.236,ratings,2022.1.1,Win32,60.09615385
-0.177902622,1.49,-2.050561798,2.073,0,371,371,401,1,683_a004ad18331da968da5debdd15e1447dd7748750af0bc6c57b844200_circblurext.jpg,-2.91956,2.466524,circularblurringext,maba09021998,001,2022-03-29_10h03.45.236,ratings,2022.1.1,Win32,60.09615385
-1.142322097,1.68,0.280898876,2.274,0,372,372,159,1,358_157f8ac929713531a15b1ecf115e7b659cb90e83d675251e368d165f_blur.jpg,-3.777776,-0.571428,blurring,maba09021998,001,2022-03-29_10h03.45.236,ratings,2022.1.1,Win32,60.09615385
0.514981273,14.027,-1.70411985,16.045,0,373,373,543,1,1005_b980c0747d20935bc63cc27a9e05ce2ff5bae98f859872ec48edd7f5_blur.jpg,3.428572,-0.476192,blurring,maba09021998,001,2022-03-29_10h03.45.236,ratings,2022.1.1,Win32,60.09615385
-0.31835206,3.256,-0.383895131,3.725,0,374,374,237,1,410_9633c4ff6e8888fcfca59a60ca86e9606d3e0736500a254101bdf295_blur.jpg,-0.3677892,2.981028,blurring,maba09021998,001,2022-03-29_10h03.45.236,ratings,2022.1.1,Win32,60.09615385
-2.537453184,1.409,0.627340824,3.189,0,375,375,493,1,824_b1d91cc824ce0d3d383d3147da88d3d6dbaf6be918bab79e3ec8f501_bw.jpg,-3.645176,-1.432784,blackwhite,maba09021998,001,2022-03-29_10h03.45.236,ratings,2022.1.1,Win32,60.09615385
1.367041199,2.507,0.767790262,3.09,0,376,376,525,1,877_cab3efed0c9ff4552037df6c1ea4ea9713f915c94592a14dbf2799da_blur.jpg,3.174604,0.3174604,blurring,maba09021998,001,2022-03-29_10h03.45.236,ratings,2022.1.1,Win32,60.09615385
-2.097378277,1.461,-0.280898876,2.018,0,377,377,533,1,915_dc9fd40a3b5d64a180833a7bac86e7556c24f681f473fe255e41f936_circblurext.jpg,-3.09294,-0.918696,circularblurringext,maba09021998,001,2022-03-29_10h03.45.236,ratings,2022.1.1,Win32,60.09615385
0.337078652,4.505,-1.872659176,5.105,0,378,378,301,1,453_54f106fd1d4b65fa4aa347407127fc30d49f791e81aee3a0bbe44489_bw.jpg,2.222224,0.0,blackwhite,maba09021998,001,2022-03-29_10h03.45.236,ratings,2022.1.1,Win32,60.09615385
1.488764045,1.664,1.573033708,2.273,0,379,379,77,1,236_f645730e1eb06155418c9a571329cc7fa320654fcaaedf1048b5cc11_circblurext.jpg,2.253968,0.0,circularblurringext,maba09021998,001,2022-03-29_10h03.45.236,ratings,2022.1.1,Win32,60.09615385
-2.125468165,1.224,-0.486891386,1.808,0,380,380,528,1,915_dc9fd40a3b5d64a180833a7bac86e7556c24f681f473fe255e41f936_orig.jpg,-3.09294,-0.918696,original,maba09021998,001,2022-03-29_10h03.45.236,ratings,2022.1.1,Win32,60.09615385
-2.041198502,8.549,-0.533707865,9.197,0,381,381,365,1,508_a7a9519cdc7aad6844030f4e6cd96cffd1b9c49b71e20ea52789bda2_circblurext.jpg,-3.000388,-1.29694,circularblurringext,maba09021998,001,2022-03-29_10h03.45.236,ratings,2022.1.1,Win32,60.09615385
-0.449438202,2.158,-0.280898876,2.77,0,382,382,359,1,500_3b520c7f352afa1a9f8c07e56cc0588cdc04d25ff6e7b602b5e280cb_circblurext.jpg,-0.8328,3.11766,circularblurringext,maba09021998,001,2022-03-29_10h03.45.236,ratings,2022.1.1,Win32,60.09615385
-0.383895131,2.082,-0.262172285,3.984,0,383,383,13,1,39_2fafccaa4dc69045a05845f59c6b3cd2edcf7e0e0c108b24e553afe0_bw.jpg,2.022756,0.463548,blackwhite,maba09021998,001,2022-03-29_10h03.45.236,ratings,2022.1.1,Win32,60.09615385
1.619850187,1.942,1.020599251,2.525,0,384,384,118,1,332_4d584229bdae2e1782f77f0e953e528f13c3dfa79b4b94736c0310fa_circblurint.jpg,3.157348,0.483092,circularblurringint,maba09021998,001,2022-03-29_10h03.45.236,ratings,2022.1.1,Win32,60.09615385
1.610486891,2.361,0.983146067,3.523,0,385,385,78,1,242_85283f6935a89812ab229dcad9ba184529c9242ac3106d768ecf3ab3_orig.jpg,2.14918,-0.2949852,original,maba09021998,001,2022-03-29_10h03.45.236,ratings,2022.1.1,Win32,60.09615385
1.797752809,1.391,2.425093633,2.029,0,386,386,370,1,616_05a637f5281666f53d4e2ef69351485fc21d629b37ee2006b2076eb6_circblurint.jpg,-2.380952,-0.832364,circularblurringint,maba09021998,001,2022-03-29_10h03.45.236,ratings,2022.1.1,Win32,60.09615385
-0.514981273,2.023,-0.327715356,2.59,0,387,387,443,1,700_59cb565f134f1afd066d7b6d936c6511b7cb76de0e9cbb5ce15124ad_circblurext.jpg,0.0,0.0,circularblurringext,maba09021998,001,2022-03-29_10h03.45.236,ratings,2022.1.1,Win32,60.09615385
2.509363296,1.689,1.619850187,2.906,0,388,388,180,1,369_98db62a1bdabfd1bc551180da6658005b461585cd21614633cf76470_orig.jpg,2.190476,-0.03174604,original,maba09021998,001,2022-03-29_10h03.45.236,ratings,2022.1.1,Win32,60.09615385
1.161048689,8.969,0.31835206,9.615,0,389,389,131,1,349_18d92ef5c21ca70a3dd237aad251594e1688bbe01d8cff37b89c46b8_circblurext.jpg,-2.74874,-1.258228,circularblurringext,maba09021998,001,2022-03-29_10h03.45.236,ratings,2022.1.1,Win32,60.09615385
0.692883895,1.405,-0.561797753,1.987,0,390,390,568,1,1037_e2eb929a6de79a63ce6cfe5321fcb74a203b134e4094932d90b01d99_circblurint.jpg,2.651956,0.0,circularblurringint,maba09021998,001,2022-03-29_10h03.45.236,ratings,2022.1.1,Win32,60.09615385
-1.095505618,1.313,0.205992509,1.824,0,391,391,363,1,508_a7a9519cdc7aad6844030f4e6cd96cffd1b9c49b71e20ea52789bda2_blur.jpg,-3.000388,-1.29694,blurring,maba09021998,001,2022-03-29_10h03.45.236,ratings,2022.1.1,Win32,60.09615385
-0.63670412,1.125,-0.861423221,1.642,0,392,392,426,1,694_7a14b8ab7c564dcb0f628c4de7f6cb54e4c5f6601f774bf167641c37_orig.jpg,1.819588,0.116144,original,maba09021998,001,2022-03-29_10h03.45.236,ratings,2022.1.1,Win32,60.09615385
-1.179775281,1.093,-0.252808989,1.609,0,393,393,164,1,361_b5541309527dc3c2422f45a95ebb0ed32005e6fe10d0489a1ff1fbdc_edges.jpg,-3.987612,-0.2516452,edges,maba09021998,001,2022-03-29_10h03.45.236,ratings,2022.1.1,Win32,60.09615385
-1.835205993,1.064,-0.280898876,1.591,0,394,394,435,1,694_f80f33613b268beffd6c044537cf3b44a84683d6e889bc37b8e9c34b_blur.jpg,-0.3785616,3.34728,blurring,maba09021998,001,2022-03-29_10h03.45.236,ratings,2022.1.1,Win32,60.09615385
0.262172285,0.962,-1.179775281,1.407,0,395,395,473,1,741_2b218fb015e3da83db73cacdb52e61e0c2534c1fe255bb1c5c74d47f_circblurext.jpg,3.140096,0.448584,circularblurringext,maba09021998,001,2022-03-29_10h03.45.236,ratings,2022.1.1,Win32,60.09615385
-1.27340824,0.961,-0.383895131,1.374,0,396,396,260,1,416_8a1f874e0057d67a4e6955865ba88b2d8ce2c8b4469589307687a723_edges.jpg,-1.753336,3.088264,edges,maba09021998,001,2022-03-29_10h03.45.236,ratings,2022.1.1,Win32,60.09615385
1.011235955,1.526,0.992509363,2.039,0,397,397,509,1,855_66d893451dfd1e7615132071c6c8a82b02dc2b37781cd89400883b26_circblurext.jpg,2.69484,0.2143624,circularblurringext,maba09021998,001,2022-03-29_10h03.45.236,ratings,2022.1.1,Win32,60.09615385
-1.507490637,1.06,-1.357677903,1.607,0,398,398,375,1,620_9674719009d75dcfeaed7f15932c43e1fd1af5e25d47b8aadd61efe2_blur.jpg,-0.561364,1.142084,blurring,maba09021998,001,2022-03-29_10h03.45.236,ratings,2022.1.1,Win32,60.09615385
0.786516854,1.375,-2.219101124,2.241,0,399,399,28,1,59_8568373b727f29d67ba6ce4c360dd918c8b08b13495fca56bdda5e82_circblurint.jpg,2.064896,0.505688,circularblurringint,maba09021998,001,2022-03-29_10h03.45.236,ratings,2022.1.1,Win32,60.09615385
-0.458801498,1.442,-0.234082397,1.924,0,400,400,306,1,455_34a7d8167619d110206c369e3f7dce8a3f99db763a9d8e2b956501d3_orig.jpg,-2.526412,-0.3827896,original,maba09021998,001,2022-03-29_10h03.45.236,ratings,2022.1.1,Win32,60.09615385
-1.338951311,1.173,-0.037453184,1.639,0,401,401,503,1,854_081a8409e4d6d10923b2dedcc16a3fca405fcd602e55a20d84cac69d_circblurext.jpg,3.088264,1.21538,circularblurringext,maba09021998,001,2022-03-29_10h03.45.236,ratings,2022.1.1,Win32,60.09615385
0.43071161,1.072,0.47752809,1.596,0,402,402,540,1,1005_b980c0747d20935bc63cc27a9e05ce2ff5bae98f859872ec48edd7f5_orig.jpg,3.428572,-0.476192,original,maba09021998,001,2022-03-29_10h03.45.236,ratings,2022.1.1,Win32,60.09615385
-0.393258427,2.572,1.011235955,3.172,0,403,403,454,1,716_2ab64478147184c4df720a52cf621875addc9007cb2967e4a9a88909_circblurint.jpg,2.428484,0.0,circularblurringint,maba09021998,001,2022-03-29_10h03.45.236,ratings,2022.1.1,Win32,60.09615385
-1.807116105,1.231,-0.121722846,1.644,0,404,404,236,1,410_9633c4ff6e8888fcfca59a60ca86e9606d3e0736500a254101bdf295_edges.jpg,-0.3677892,2.981028,edges,maba09021998,001,2022-03-29_10h03.45.236,ratings,2022.1.1,Win32,60.09615385
-1.554307116,2.841,0.383895131,3.37,0,405,405,219,1,396_208259ea431d47bb7f3946213eb099834eb119756ce304ad473d4d9f_blur.jpg,2.857144,-0.3809524,blurring,maba09021998,001,2022-03-29_10h03.45.236,ratings,2022.1.1,Win32,60.09615385
0.95505618,2.175,1.498127341,2.99,0,406,406,147,1,354_e46c3ec6fb00773f64f2bcd212385f253c389808fe724b7cf8611051_blur.jpg,2.018292,0.0,blurring,maba09021998,001,2022-03-29_10h03.45.236,ratings,2022.1.1,Win32,60.09615385
-2.144194757,1.094,-0.926966292,1.577,0,407,407,318,1,460_e06b3af7ff2f2bfb5f9b6e3d5dc25b9aaa40b84823fac8fd934621bd_orig.jpg,-3.430992,-1.607468,original,maba09021998,001,2022-03-29_10h03.45.236,ratings,2022.1.1,Win32,60.09615385
-2.02247191,1.623,-0.365168539,2.09,0,408,408,471,1,741_2b218fb015e3da83db73cacdb52e61e0c2534c1fe255bb1c5c74d47f_blur.jpg,3.140096,0.448584,blurring,maba09021998,001,2022-03-29_10h03.45.236,ratings,2022.1.1,Win32,60.09615385
-1.582397004,1.058,0.177902622,1.546,0,409,409,469,1,741_2b218fb015e3da83db73cacdb52e61e0c2534c1fe255bb1c5c74d47f_bw.jpg,3.140096,0.448584,blackwhite,maba09021998,001,2022-03-29_10h03.45.236,ratings,2022.1.1,Win32,60.09615385
1.207865169,1.942,0.889513109,2.724,0,410,410,368,1,616_05a637f5281666f53d4e2ef69351485fc21d629b37ee2006b2076eb6_edges.jpg,-2.380952,-0.832364,edges,maba09021998,001,2022-03-29_10h03.45.236,ratings,2022.1.1,Win32,60.09615385
1.769662921,3.489,-1.610486891,4.805,0,411,411,367,1,616_05a637f5281666f53d4e2ef69351485fc21d629b37ee2006b2076eb6_bw.jpg,-2.380952,-0.832364,blackwhite,maba09021998,001,2022-03-29_10h03.45.236,ratings,2022.1.1,Win32,60.09615385
-1.788389513,1.278,0.355805243,2.189,0,412,412,570,1,1039_d64da8480fc6e94dcdc513237d600570ae0b9fe48795ac6a8b2d29a7_orig.jpg,-2.507936,-1.142856,original,maba09021998,001,2022-03-29_10h03.45.236,ratings,2022.1.1,Win32,60.09615385
0.739700375,2.125,-1.70411985,2.625,0,413,413,169,1,365_45a719cabbc9aa308c4fcb30d529489c6966ac4073874af84f665c61_bw.jpg,2.507936,-1.968252,blackwhite,maba09021998,001,2022-03-29_10h03.45.236,ratings,2022.1.1,Win32,60.09615385
-0.177902622,1.707,-0.290262172,2.259,0,414,414,55,1,137_0e6a04243c0a42a5e2528a2d181255ca2a4b7bd6e7978c5c2059c69f_bw.jpg,-0.95238,2.095236,blackwhite,maba09021998,001,2022-03-29_10h03.45.236,ratings,2022.1.1,Win32,60.09615385
-0.393258427,1.125,-0.102996255,1.724,0,415,415,259,1,416_8a1f874e0057d67a4e6955865ba88b2d8ce2c8b4469589307687a723_bw.jpg,-1.753336,3.088264,blackwhite,maba09021998,001,2022-03-29_10h03.45.236,ratings,2022.1.1,Win32,60.09615385
1.956928839,17.412,-1.142322097,18.075,0,416,416,462,1,736_bb85db1bcda8eb34299aa5791ac65a0a7c343266eb2d6e6e328ec0e1_orig.jpg,3.650792,-0.03174604,original,maba09021998,001,2022-03-29_10h03.45.236,ratings,2022.1.1,Win32,60.09615385
-1.470037453,2.208,-0.402621723,2.855,0,417,417,314,1,459_46e25de472bb056cb470716d30937415f7344bfc4354d6eb710d8c9f_edges.jpg,0.03174604,0.0,edges,maba09021998,001,2022-03-29_10h03.45.236,ratings,2022.1.1,Win32,60.09615385
-1.076779026,7.437,-0.514981273,8.002,0,418,418,234,1,410_9633c4ff6e8888fcfca59a60ca86e9606d3e0736500a254101bdf295_orig.jpg,-0.3677892,2.981028,original,maba09021998,001,2022-03-29_10h03.45.236,ratings,2022.1.1,Win32,60.09615385
1.029962547,1.791,-1.563670412,2.323,0,419,419,256,1,416_5eb54976bb41ce2a6d129ef985f792e716f010fb9b69b15f50f5d2db_circblurint.jpg,-2.58766,2.602972,circularblurringint,maba09021998,001,2022-03-29_10h03.45.236,ratings,2022.1.1,Win32,60.09615385
0.533707865,12.948,-1.947565543,13.519,0,420,420,518,1,860_05c4e22518a30d3d2add458a8fc6488f87b9b02dd8e385ded939f025_edges.jpg,1.955092,0.3097172,edges,maba09021998,001,2022-03-29_10h03.45.236,ratings,2022.1.1,Win32,60.09615385
-2.219101124,1.704,-0.299625468,2.456,0,421,421,364,1,508_a7a9519cdc7aad6844030f4e6cd96cffd1b9c49b71e20ea52789bda2_circblurint.jpg,-3.000388,-1.29694,circularblurringint,maba09021998,001,2022-03-29_10h03.45.236,ratings,2022.1.1,Win32,60.09615385
0.374531835,2.653,-1.807116105,3.335,0,422,422,349,1,498_305b74cdc4784d9d25e72724302e5402def70177ea31ae7e25fab66b_bw.jpg,3.04762,-0.444444,blackwhite,maba09021998,001,2022-03-29_10h03.45.236,ratings,2022.1.1,Win32,60.09615385
-1.732209738,1.763,-0.814606742,2.425,0,423,423,374,1,620_9674719009d75dcfeaed7f15932c43e1fd1af5e25d47b8aadd61efe2_edges.jpg,-0.561364,1.142084,edges,maba09021998,001,2022-03-29_10h03.45.236,ratings,2022.1.1,Win32,60.09615385
-0.243445693,0.891,-0.486891386,1.393,0,424,424,284,1,440_dc6413e2b65369ee2587f4d85621742fe4ca87392d0a8ad2ea7d94e3_edges.jpg,-3.016216,1.69404,edges,maba09021998,001,2022-03-29_10h03.45.236,ratings,2022.1.1,Win32,60.09615385
-0.580524345,0.908,-0.580524345,1.37,0,425,425,487,1,818_877aae033c31e3bbca4486321a5307f87cf53c576c546462d3daf194_bw.jpg,-1.277584,0.619436,blackwhite,maba09021998,001,2022-03-29_10h03.45.236,ratings,2022.1.1,Win32,60.09615385
0.777153558,1.319,-0.842696629,1.767,0,426,426,15,1,39_2fafccaa4dc69045a05845f59c6b3cd2edcf7e0e0c108b24e553afe0_blur.jpg,2.022756,0.463548,blurring,maba09021998,001,2022-03-29_10h03.45.236,ratings,2022.1.1,Win32,60.09615385
-0.664794007,1.177,-0.411985019,1.708,0,427,427,200,1,380_34772591c787182a37724027eac6948ebc9d4064f6a601d23b923b8e_edges.jpg,2.222224,-0.063492,edges,maba09021998,001,2022-03-29_10h03.45.236,ratings,2022.1.1,Win32,60.09615385
-0.655430712,0.692,-0.196629213,1.064,0,428,428,81,1,242_85283f6935a89812ab229dcad9ba184529c9242ac3106d768ecf3ab3_blur.jpg,2.14918,-0.2949852,blurring,maba09021998,001,2022-03-29_10h03.45.236,ratings,2022.1.1,Win32,60.09615385
-0.514981273,0.687,-0.43071161,1.053,0,429,429,26,1,59_8568373b727f29d67ba6ce4c360dd918c8b08b13495fca56bdda5e82_edges.jpg,2.064896,0.505688,edges,maba09021998,001,2022-03-29_10h03.45.236,ratings,2022.1.1,Win32,60.09615385
