valence_slider.response,valence_slider.rt,arousal_slider.response,arousal_slider.rt,trials.thisRepN,trials.thisTrialN,trials.thisN,trials.thisIndex,trials.ran,img_name,vm,am,manipulation,participant,date,expName,psychopyVersion,OS,frameRate
-0.552749766,293.8655,-0.513267639,298.7136,0,0,0,573,1,1039_d64da8480fc6e94dcdc513237d600570ae0b9fe48795ac6a8b2d29a7_blur.jpg,-2.507936,-1.142856,blurring,mama13,2022-04-27_09h57.21.392,ratings,2022.1.1,Win32,59.99880002
-1.645088588,25.9043,-1.092338822,34.1687,0,1,1,405,1,686_6745b57686ad5d1bd6cf3e7ed5bc0243a154f8939e88e30321dfcfdb_blur.jpg,-1.523808,3.650792,blurring,mama13,2022-04-27_09h57.21.392,ratings,2022.1.1,Win32,59.99880002
1.552963627,8.8838,0.565910474,12.4347,0,2,2,566,1,1037_e2eb929a6de79a63ce6cfe5321fcb74a203b134e4094932d90b01d99_edges.jpg,2.651956,0.0,edges,mama13,2022-04-27_09h57.21.392,ratings,2022.1.1,Win32,59.99880002
-2.94799875,9.0804,-1.039695988,16.4796,0,3,3,496,1,824_b1d91cc824ce0d3d383d3147da88d3d6dbaf6be918bab79e3ec8f501_circblurint.jpg,-3.645176,-1.432784,circularblurringint,mama13,2022-04-27_09h57.21.392,ratings,2022.1.1,Win32,59.99880002
-1.131820949,20.1722,-1.092338822,22.7846,0,4,4,373,1,620_9674719009d75dcfeaed7f15932c43e1fd1af5e25d47b8aadd61efe2_bw.jpg,-0.561364,1.142084,blackwhite,mama13,2022-04-27_09h57.21.392,ratings,2022.1.1,Win32,59.99880002
-1.171303075,15.1108,-1.210785201,16.9776,0,5,5,435,1,694_f80f33613b268beffd6c044537cf3b44a84683d6e889bc37b8e9c34b_blur.jpg,-0.3785616,3.34728,blurring,mama13,2022-04-27_09h57.21.392,ratings,2022.1.1,Win32,59.99880002
-2.23732048,3.907,-2.526856071,5.5095,0,6,6,415,1,692_7d7eaf20e6de8956f0fca7500ace97a8599aa8b605a7d690cdb28724_bw.jpg,-2.063492,-1.26984,blackwhite,mama13,2022-04-27_09h57.21.392,ratings,2022.1.1,Win32,59.99880002
0.184249922,4.701,0.315857009,6.4673,0,7,7,549,1,1010_06d15f44b979c086561137000ec070ba4cd479856f92840a7850b2bf_blur.jpg,0.189786,-0.189786,blurring,mama13,2022-04-27_09h57.21.392,ratings,2022.1.1,Win32,59.99880002
-1.789856384,9.0832,-1.803017092,14.6963,0,8,8,499,1,854_081a8409e4d6d10923b2dedcc16a3fca405fcd602e55a20d84cac69d_bw.jpg,3.088264,1.21538,blackwhite,mama13,2022-04-27_09h57.21.392,ratings,2022.1.1,Win32,59.99880002
-0.342178426,7.3314,-0.355339135,9.0982,0,9,9,97,1,267_792043debad81ce271cec5b3c3bd9d264efc13f362bec9c7a3f72fe7_bw.jpg,1.980616,0.2107036,blackwhite,mama13,2022-04-27_09h57.21.392,ratings,2022.1.1,Win32,59.99880002
-3.013802293,5.9805,-2.421570402,8.9985,0,10,10,503,1,854_081a8409e4d6d10923b2dedcc16a3fca405fcd602e55a20d84cac69d_circblurext.jpg,3.088264,1.21538,circularblurringext,mama13,2022-04-27_09h57.21.392,ratings,2022.1.1,Win32,59.99880002
0.6053926,4.9458,0.552749766,6.948,0,11,11,371,1,616_05a637f5281666f53d4e2ef69351485fc21d629b37ee2006b2076eb6_circblurext.jpg,-2.380952,-0.832364,circularblurringext,mama13,2022-04-27_09h57.21.392,ratings,2022.1.1,Win32,59.99880002
1.93462418,4.2967,1.447677957,6.2305,0,12,12,179,1,368_6507b94d7d0199f14efd3706db30c9c44b96085f84e9cc7792e3e0ae_circblurext.jpg,1.959544,0.400336,circularblurringext,mama13,2022-04-27_09h57.21.392,ratings,2022.1.1,Win32,59.99880002
0.829124648,4.4919,0.960731735,5.9962,0,13,13,443,1,700_59cb565f134f1afd066d7b6d936c6511b7cb76de0e9cbb5ce15124ad_circblurext.jpg,0.0,0.0,circularblurringext,mama13,2022-04-27_09h57.21.392,ratings,2022.1.1,Win32,59.99880002
1.72405284,2.1828,1.552963627,3.716,0,14,14,41,1,82_43f4d5aec7c2e5bd495473f6708a0f2d47c9fe34e1fe9436646cb036_circblurext.jpg,2.022756,0.505688,circularblurringext,mama13,2022-04-27_09h57.21.392,ratings,2022.1.1,Win32,59.99880002
-1.329231579,2.856,-2.039909849,6.6995,0,15,15,512,1,858_2f6539ee36aba48c38dc716d4f7c3ae93367d6ddf23ab41745d4172c_edges.jpg,0.0623832,0.176752,edges,mama13,2022-04-27_09h57.21.392,ratings,2022.1.1,Win32,59.99880002
0.579071183,3.7044,0.500106931,5.1137,0,16,16,32,1,60_ad52063167538de24f94d7dfd04808cb94cf8f426c40871d2f126505_edges.jpg,2.158732,0.0,edges,mama13,2022-04-27_09h57.21.392,ratings,2022.1.1,Win32,59.99880002
1.803017092,2.9178,1.658249297,4.1144,0,17,17,565,1,1037_e2eb929a6de79a63ce6cfe5321fcb74a203b134e4094932d90b01d99_bw.jpg,2.651956,0.0,blackwhite,mama13,2022-04-27_09h57.21.392,ratings,2022.1.1,Win32,59.99880002
-0.539589057,5.8102,-0.486946222,6.8852,0,18,18,45,1,92_5d20d78a8e57e628c6930676473a4e0a485e715841efd6286c660020_blur.jpg,2.126984,0.0,blurring,mama13,2022-04-27_09h57.21.392,ratings,2022.1.1,Win32,59.99880002
0.131607087,3.7058,0.078964252,5.2013,0,19,19,82,1,242_85283f6935a89812ab229dcad9ba184529c9242ac3106d768ecf3ab3_circblurint.jpg,2.14918,-0.2949852,circularblurringint,mama13,2022-04-27_09h57.21.392,ratings,2022.1.1,Win32,59.99880002
-2.711105993,2.7644,-2.711105993,3.8645,0,20,20,248,1,414_0187bdf7007109b487865b6a9d388997a6817acf052a6a7cdd5b39d9_edges.jpg,-2.786708,-1.133056,edges,mama13,2022-04-27_09h57.21.392,ratings,2022.1.1,Win32,59.99880002
-0.473785513,4.1769,-0.368499844,5.6435,0,21,21,62,1,156_08e8cf8f04630e9213e610580de73f51572d1d589878648700bae4dc_edges.jpg,2.222224,0.0,edges,mama13,2022-04-27_09h57.21.392,ratings,2022.1.1,Win32,59.99880002
-2.724266702,10.3961,-2.724266702,8.212,0,22,22,492,1,824_b1d91cc824ce0d3d383d3147da88d3d6dbaf6be918bab79e3ec8f501_orig.jpg,-3.645176,-1.432784,original,mama13,2022-04-27_09h57.21.392,ratings,2022.1.1,Win32,59.99880002
-0.092124961,3.6382,-0.144767796,5.1963,0,23,23,588,1,1228_557412d34d6a70b7c5d222e030aa485b351a4574e8ba1a3112d1d13d_orig.jpg,2.137444,0.703464,original,mama13,2022-04-27_09h57.21.392,ratings,2022.1.1,Win32,59.99880002
0.329017718,5.4873,1.263428036,9.3516,0,24,24,181,1,369_98db62a1bdabfd1bc551180da6658005b461585cd21614633cf76470_bw.jpg,2.190476,-0.03174604,blackwhite,mama13,2022-04-27_09h57.21.392,ratings,2022.1.1,Win32,59.99880002
-0.144767796,4.6824,0.315857009,7.1988,0,25,25,109,1,293_3dfdfafc0c6a54b2da7453750ac281f7718c0b3337b0a74c4563d6bd_bw.jpg,-2.574524,2.632596,blackwhite,mama13,2022-04-27_09h57.21.392,ratings,2022.1.1,Win32,59.99880002
1.513481501,3.6465,1.263428036,4.7649,0,26,26,446,1,709_69c01dcde028a2a1a913f1a2a5026ae1748484f75c89217a040c6791_edges.jpg,1.432444,-0.01935732,edges,mama13,2022-04-27_09h57.21.392,ratings,2022.1.1,Win32,59.99880002
0.579071183,11.1815,0.802803231,12.6311,0,27,27,569,1,1037_e2eb929a6de79a63ce6cfe5321fcb74a203b134e4094932d90b01d99_circblurext.jpg,2.651956,0.0,circularblurringext,mama13,2022-04-27_09h57.21.392,ratings,2022.1.1,Win32,59.99880002
0.644874727,3.6974,0.065803544,5.6139,0,28,28,524,1,877_cab3efed0c9ff4552037df6c1ea4ea9713f915c94592a14dbf2799da_edges.jpg,3.174604,0.3174604,edges,mama13,2022-04-27_09h57.21.392,ratings,2022.1.1,Win32,59.99880002
0.421142679,5.0475,0.289535591,6.1298,0,29,29,83,1,242_85283f6935a89812ab229dcad9ba184529c9242ac3106d768ecf3ab3_circblurext.jpg,2.14918,-0.2949852,circularblurringext,mama13,2022-04-27_09h57.21.392,ratings,2022.1.1,Win32,59.99880002
-0.644874727,3.8125,-1.026535279,6.2803,0,30,30,308,1,455_34a7d8167619d110206c369e3f7dce8a3f99db763a9d8e2b956501d3_edges.jpg,-2.526412,-0.3827896,edges,mama13,2022-04-27_09h57.21.392,ratings,2022.1.1,Win32,59.99880002
0.157928504,3.0653,0.3026963,5.2139,0,31,31,455,1,716_2ab64478147184c4df720a52cf621875addc9007cb2967e4a9a88909_circblurext.jpg,2.428484,0.0,circularblurringext,mama13,2022-04-27_09h57.21.392,ratings,2022.1.1,Win32,59.99880002
1.395035123,4.2938,1.197624492,5.732,0,32,32,28,1,59_8568373b727f29d67ba6ce4c360dd918c8b08b13495fca56bdda5e82_circblurint.jpg,2.064896,0.505688,circularblurringint,mama13,2022-04-27_09h57.21.392,ratings,2022.1.1,Win32,59.99880002
-1.855659927,6.727,-1.855659927,8.0826,0,33,33,251,1,414_0187bdf7007109b487865b6a9d388997a6817acf052a6a7cdd5b39d9_circblurext.jpg,-2.786708,-1.133056,circularblurringext,mama13,2022-04-27_09h57.21.392,ratings,2022.1.1,Win32,59.99880002
1.066017405,4.1644,0.881767483,5.9474,0,34,34,595,1,1239_cee00457f4cfb76a407b12fd5ad714d440a4614c1e5467ee16caf618_bw.jpg,-0.03174604,0.190476,blackwhite,mama13,2022-04-27_09h57.21.392,ratings,2022.1.1,Win32,59.99880002
-1.039695988,3.8517,-2.145195519,5.9332,0,35,35,491,1,818_877aae033c31e3bbca4486321a5307f87cf53c576c546462d3daf194_circblurext.jpg,-1.277584,0.619436,circularblurringext,mama13,2022-04-27_09h57.21.392,ratings,2022.1.1,Win32,59.99880002
-2.210999062,7.5866,-2.368927567,6.3239,0,36,36,104,1,284_cdcbd54fc995081ac95c8b2c37a19cebb341f61a8eb268cee1623492_edges.jpg,-1.015872,2.095236,edges,mama13,2022-04-27_09h57.21.392,ratings,2022.1.1,Win32,59.99880002
1.368713705,4.9752,1.763534966,8.3446,0,37,37,253,1,416_5eb54976bb41ce2a6d129ef985f792e716f010fb9b69b15f50f5d2db_bw.jpg,-2.58766,2.602972,blackwhite,mama13,2022-04-27_09h57.21.392,ratings,2022.1.1,Win32,59.99880002
0.381660552,4.8026,0.539589057,16.2345,0,38,38,223,1,403_57ac47f43882fc031a6067b1a388c0b2cbe8708dcbd2ff1019932eff_bw.jpg,-3.333332,-1.396824,blackwhite,mama13,2022-04-27_09h57.21.392,ratings,2022.1.1,Win32,59.99880002
1.697731423,4.7362,1.434517249,5.9091,0,39,39,11,1,28_6318543b74eeb646a1735477ebc023fdc9ac3849bc0db1957c272a26_circblurext.jpg,2.811244,-0.74584,circularblurringext,mama13,2022-04-27_09h57.21.392,ratings,2022.1.1,Win32,59.99880002
1.289749453,3.1408,1.250267327,4.3769,0,40,40,154,1,355_00a76f54934d36566dd0e7b091b8aa6a56d8e6b32d349aa578a10b45_circblurint.jpg,2.910052,0.3439152,circularblurringint,mama13,2022-04-27_09h57.21.392,ratings,2022.1.1,Win32,59.99880002
-3.829766233,3.4239,-3.513909224,6.9187,0,41,41,570,1,1039_d64da8480fc6e94dcdc513237d600570ae0b9fe48795ac6a8b2d29a7_orig.jpg,-2.507936,-1.142856,original,mama13,2022-04-27_09h57.21.392,ratings,2022.1.1,Win32,59.99880002
-3.606034185,1.6697,-3.461266389,3.2186,0,42,42,539,1,986_a77edb21e78bc3a6aa7406517824596b3496ad6c657b6befb84cf370_circblurext.jpg,-3.906316,-0.60496,circularblurringext,mama13,2022-04-27_09h57.21.392,ratings,2022.1.1,Win32,59.99880002
-0.829124648,5.8703,-0.881767483,4.5842,0,43,43,417,1,692_7d7eaf20e6de8956f0fca7500ace97a8599aa8b605a7d690cdb28724_blur.jpg,-2.063492,-1.26984,blurring,mama13,2022-04-27_09h57.21.392,ratings,2022.1.1,Win32,59.99880002
0.052642835,17.0267,-0.039482126,10.7862,0,44,44,477,1,748_e519892faa7c772a0afaf9eeff36cf0e411574027ab3d9aa4947a048_blur.jpg,-1.813112,3.307432,blurring,mama13,2022-04-27_09h57.21.392,ratings,2022.1.1,Win32,59.99880002
-0.289535591,4.8359,-0.934410318,6.4693,0,45,45,214,1,394_8e3a0cb945144d53bd1ace04b6256237ed9dcbbd9cb83f8a4886b0e6_circblurint.jpg,-2.593884,2.651956,circularblurringint,mama13,2022-04-27_09h57.21.392,ratings,2022.1.1,Win32,59.99880002
1.803017092,2.3578,1.210785201,3.5113,0,46,46,189,1,369_c99797771115d7627d4abe3415f814497288f91a7be1a04c17c776b9_blur.jpg,3.619824,-0.174216,blurring,mama13,2022-04-27_09h57.21.392,ratings,2022.1.1,Win32,59.99880002
-0.434303387,2.6096,-1.039695988,4.2921,0,47,47,363,1,508_a7a9519cdc7aad6844030f4e6cd96cffd1b9c49b71e20ea52789bda2_blur.jpg,-3.000388,-1.29694,blurring,mama13,2022-04-27_09h57.21.392,ratings,2022.1.1,Win32,59.99880002
-2.382088275,6.1324,-2.553177489,4.8515,0,48,48,133,1,349_8809a67686d34844c915d7700e2ea72ad1c02ae232ae0d3cc0e458d4_bw.jpg,-3.619048,-0.2857144,blackwhite,mama13,2022-04-27_09h57.21.392,ratings,2022.1.1,Win32,59.99880002
-0.671196144,6.4029,-1.72405284,8.586,0,49,49,359,1,500_3b520c7f352afa1a9f8c07e56cc0588cdc04d25ff6e7b602b5e280cb_circblurext.jpg,-0.8328,3.11766,circularblurringext,mama13,2022-04-27_09h57.21.392,ratings,2022.1.1,Win32,59.99880002
-0.184249922,2.1414,-0.223732048,3.4297,0,50,50,236,1,410_9633c4ff6e8888fcfca59a60ca86e9606d3e0736500a254101bdf295_edges.jpg,-0.3677892,2.981028,edges,mama13,2022-04-27_09h57.21.392,ratings,2022.1.1,Win32,59.99880002
-0.447464096,5.3029,-0.987053153,6.6079,0,51,51,365,1,508_a7a9519cdc7aad6844030f4e6cd96cffd1b9c49b71e20ea52789bda2_circblurext.jpg,-3.000388,-1.29694,circularblurringext,mama13,2022-04-27_09h57.21.392,ratings,2022.1.1,Win32,59.99880002
2.64530245,5.8728,2.263641897,7.2498,0,52,52,49,1,112_b6a4ce721c2e42943d7d8b168751d74cd2f372b1cd4fed5a4404faec_bw.jpg,2.107036,0.505688,blackwhite,mama13,2022-04-27_09h57.21.392,ratings,2022.1.1,Win32,59.99880002
0.934410318,1.9429,0.750160396,3.0015,0,53,53,381,1,640_0ddb4981a5f5842ed5b4f7ef941be53779189df5e718b1fc5475ad80_blur.jpg,2.571428,-1.873016,blurring,mama13,2022-04-27_09h57.21.392,ratings,2022.1.1,Win32,59.99880002
1.434517249,5.1011,1.395035123,4.0339,0,54,54,545,1,1005_b980c0747d20935bc63cc27a9e05ce2ff5bae98f859872ec48edd7f5_circblurext.jpg,3.428572,-0.476192,circularblurringext,mama13,2022-04-27_09h57.21.392,ratings,2022.1.1,Win32,59.99880002
-0.421142679,1.9946,-0.855446066,3.2059,0,55,55,398,1,683_a004ad18331da968da5debdd15e1447dd7748750af0bc6c57b844200_edges.jpg,-2.91956,2.466524,edges,mama13,2022-04-27_09h57.21.392,ratings,2022.1.1,Win32,59.99880002
1.144981657,3.8885,0.381660552,5.5941,0,56,56,593,1,1228_557412d34d6a70b7c5d222e030aa485b351a4574e8ba1a3112d1d13d_circblurext.jpg,2.137444,0.703464,circularblurringext,mama13,2022-04-27_09h57.21.392,ratings,2022.1.1,Win32,59.99880002
1.93462418,1.9141,0.868606774,6.1384,0,57,57,267,1,431_ab5a1dbbe9292ac7f74e276cdabcd372e2c1f852ff34bf7cc6646ef8_blur.jpg,3.102584,0.354334,blurring,mama13,2022-04-27_09h57.21.392,ratings,2022.1.1,Win32,59.99880002
2.855873789,2.8239,4,5.7606,0,58,58,6,1,28_6318543b74eeb646a1735477ebc023fdc9ac3849bc0db1957c272a26_orig.jpg,2.811244,-0.74584,original,mama13,2022-04-27_09h57.21.392,ratings,2022.1.1,Win32,59.99880002
0.579071183,4.3718,0.565910474,6.5306,0,59,59,74,1,236_f645730e1eb06155418c9a571329cc7fa320654fcaaedf1048b5cc11_edges.jpg,2.253968,0.0,edges,mama13,2022-04-27_09h57.21.392,ratings,2022.1.1,Win32,59.99880002
1.11866024,17.9184,-0.434303387,16.235,0,60,60,79,1,242_85283f6935a89812ab229dcad9ba184529c9242ac3106d768ecf3ab3_bw.jpg,2.14918,-0.2949852,blackwhite,mama13,2022-04-27_09h57.21.392,ratings,2022.1.1,Win32,59.99880002
-1.947784888,4.6115,-1.803017092,6.1655,0,61,61,156,1,358_157f8ac929713531a15b1ecf115e7b659cb90e83d675251e368d165f_orig.jpg,-3.777776,-0.571428,original,mama13,2022-04-27_09h57.21.392,ratings,2022.1.1,Win32,59.99880002
0.342178426,1.6314,0.078964252,2.6644,0,62,62,471,1,741_2b218fb015e3da83db73cacdb52e61e0c2534c1fe255bb1c5c74d47f_blur.jpg,3.140096,0.448584,blurring,mama13,2022-04-27_09h57.21.392,ratings,2022.1.1,Win32,59.99880002
-2.197838354,5.3596,-2.329445441,4.3928,0,63,63,495,1,824_b1d91cc824ce0d3d383d3147da88d3d6dbaf6be918bab79e3ec8f501_blur.jpg,-3.645176,-1.432784,blurring,mama13,2022-04-27_09h57.21.392,ratings,2022.1.1,Win32,59.99880002
-2.408409693,2.4814,-2.592659615,5.113,0,64,64,419,1,692_7d7eaf20e6de8956f0fca7500ace97a8599aa8b605a7d690cdb28724_circblurext.jpg,-2.063492,-1.26984,circularblurringext,mama13,2022-04-27_09h57.21.392,ratings,2022.1.1,Win32,59.99880002
-1.658249297,2.0631,-1.987267014,3.4461,0,65,65,536,1,986_a77edb21e78bc3a6aa7406517824596b3496ad6c657b6befb84cf370_edges.jpg,-3.906316,-0.60496,edges,mama13,2022-04-27_09h57.21.392,ratings,2022.1.1,Win32,59.99880002
-0.6053926,6.3126,-0.750160396,7.3648,0,66,66,208,1,381_5935a9f9796adce2f1539af6c75bcdc0c80d847a2ce9b77cf59b7672_circblurint.jpg,-1.327432,-0.442476,circularblurringint,mama13,2022-04-27_09h57.21.392,ratings,2022.1.1,Win32,59.99880002
-0.592231892,2.2481,-0.618553309,4.1135,0,67,67,585,1,1225_59c67a821456f2cce3e5acf66d7f00076bd02caffc984c1eb0df794e_blur.jpg,-0.444444,3.809524,blurring,mama13,2022-04-27_09h57.21.392,ratings,2022.1.1,Win32,59.99880002
1.500320792,1.7639,1.552963627,3.0635,0,68,68,378,1,640_0ddb4981a5f5842ed5b4f7ef941be53779189df5e718b1fc5475ad80_orig.jpg,2.571428,-1.873016,original,mama13,2022-04-27_09h57.21.392,ratings,2022.1.1,Win32,59.99880002
0.908088901,2.132,1.197624492,4.1656,0,69,69,9,1,28_6318543b74eeb646a1735477ebc023fdc9ac3849bc0db1957c272a26_blur.jpg,2.811244,-0.74584,blurring,mama13,2022-04-27_09h57.21.392,ratings,2022.1.1,Win32,59.99880002
-2.64530245,4.6985,-3.579712768,6.0481,0,70,70,529,1,915_dc9fd40a3b5d64a180833a7bac86e7556c24f681f473fe255e41f936_bw.jpg,-3.09294,-0.918696,blackwhite,mama13,2022-04-27_09h57.21.392,ratings,2022.1.1,Win32,59.99880002
-2.43473111,8.6315,-2.342606149,12.3967,0,71,71,91,1,258_d26019382777d2159a974a7654923e71598135ce2cd710cea1f92865_bw.jpg,3.497684,-0.61104,blackwhite,mama13,2022-04-27_09h57.21.392,ratings,2022.1.1,Win32,59.99880002
3.119087963,6.5623,2.790070245,7.9487,0,72,72,0,1,13_771f4fcf0a212d25d6a78565e7f34cc5ddd823e7afbdc77ef063326e_orig.jpg,2.190476,0.0,original,mama13,2022-04-27_09h57.21.392,ratings,2022.1.1,Win32,59.99880002
2.987480876,1.8325,3.079605837,2.8147,0,73,73,201,1,380_34772591c787182a37724027eac6948ebc9d4064f6a601d23b923b8e_blur.jpg,2.222224,-0.063492,blurring,mama13,2022-04-27_09h57.21.392,ratings,2022.1.1,Win32,59.99880002
0.987053153,7.6798,0.697517561,8.8652,0,74,74,95,1,258_d26019382777d2159a974a7654923e71598135ce2cd710cea1f92865_circblurext.jpg,3.497684,-0.61104,circularblurringext,mama13,2022-04-27_09h57.21.392,ratings,2022.1.1,Win32,59.99880002
2.553177489,1.9655,2.474213236,3.3981,0,75,75,339,1,492_a1a4d288d3bc486c83c3b6a835c42891989f5ba781633932298a7676_blur.jpg,3.406892,-0.44522,blurring,mama13,2022-04-27_09h57.21.392,ratings,2022.1.1,Win32,59.99880002
0.736999687,2.5311,1.01337457,5.4157,0,76,76,222,1,403_57ac47f43882fc031a6067b1a388c0b2cbe8708dcbd2ff1019932eff_orig.jpg,-3.333332,-1.396824,original,mama13,2022-04-27_09h57.21.392,ratings,2022.1.1,Win32,59.99880002
-1.026535279,2.2144,-1.987267014,5.2643,0,77,77,513,1,858_2f6539ee36aba48c38dc716d4f7c3ae93367d6ddf23ab41745d4172c_blur.jpg,0.0623832,0.176752,blurring,mama13,2022-04-27_09h57.21.392,ratings,2022.1.1,Win32,59.99880002
-0.3026963,2.2151,-1.31607087,3.707,0,78,78,211,1,394_8e3a0cb945144d53bd1ace04b6256237ed9dcbbd9cb83f8a4886b0e6_bw.jpg,-2.593884,2.651956,blackwhite,mama13,2022-04-27_09h57.21.392,ratings,2022.1.1,Win32,59.99880002
-0.171089213,4.2288,-0.263214174,7.3459,0,79,79,101,1,267_792043debad81ce271cec5b3c3bd9d264efc13f362bec9c7a3f72fe7_circblurext.jpg,1.980616,0.2107036,circularblurringext,mama13,2022-04-27_09h57.21.392,ratings,2022.1.1,Win32,59.99880002
-0.381660552,3.1262,-0.513267639,4.5951,0,80,80,56,1,137_0e6a04243c0a42a5e2528a2d181255ca2a4b7bd6e7978c5c2059c69f_edges.jpg,-0.95238,2.095236,edges,mama13,2022-04-27_09h57.21.392,ratings,2022.1.1,Win32,59.99880002
-0.960731735,2.5804,-1.42135654,4.0133,0,81,81,209,1,381_5935a9f9796adce2f1539af6c75bcdc0c80d847a2ce9b77cf59b7672_circblurext.jpg,-1.327432,-0.442476,circularblurringext,mama13,2022-04-27_09h57.21.392,ratings,2022.1.1,Win32,59.99880002
1.750374258,1.5808,1.329231579,2.7982,0,82,82,119,1,332_4d584229bdae2e1782f77f0e953e528f13c3dfa79b4b94736c0310fa_circblurext.jpg,3.157348,0.483092,circularblurringext,mama13,2022-04-27_09h57.21.392,ratings,2022.1.1,Win32,59.99880002
-2.934838041,4.032,-3.105927254,5.0656,0,83,83,571,1,1039_d64da8480fc6e94dcdc513237d600570ae0b9fe48795ac6a8b2d29a7_bw.jpg,-2.507936,-1.142856,blackwhite,mama13,2022-04-27_09h57.21.392,ratings,2022.1.1,Win32,59.99880002
-2.23732048,3.9294,-2.118874101,5.4144,0,84,84,315,1,459_46e25de472bb056cb470716d30937415f7344bfc4354d6eb710d8c9f_blur.jpg,0.03174604,0.0,blurring,mama13,2022-04-27_09h57.21.392,ratings,2022.1.1,Win32,59.99880002
2.487373945,2.7734,3.303337885,7.6476,0,85,85,337,1,492_a1a4d288d3bc486c83c3b6a835c42891989f5ba781633932298a7676_bw.jpg,3.406892,-0.44522,blackwhite,mama13,2022-04-27_09h57.21.392,ratings,2022.1.1,Win32,59.99880002
3.527069933,1.9647,3.408623554,3.265,0,86,86,123,1,347_27f0e47c2722605b950ccf9fa900f78271e4c3c874064ab5dacac160_blur.jpg,1.838948,0.3097172,blurring,mama13,2022-04-27_09h57.21.392,ratings,2022.1.1,Win32,59.99880002
0.697517561,2.7026,0.197410631,4.3481,0,87,87,118,1,332_4d584229bdae2e1782f77f0e953e528f13c3dfa79b4b94736c0310fa_circblurint.jpg,3.157348,0.483092,circularblurringint,mama13,2022-04-27_09h57.21.392,ratings,2022.1.1,Win32,59.99880002
1.460838666,5.1796,1.42135654,7.7817,0,88,88,3,1,13_771f4fcf0a212d25d6a78565e7f34cc5ddd823e7afbdc77ef063326e_blur.jpg,2.190476,0.0,blurring,mama13,2022-04-27_09h57.21.392,ratings,2022.1.1,Win32,59.99880002
0.618553309,3.7814,0.631714018,4.9479,0,89,89,470,1,741_2b218fb015e3da83db73cacdb52e61e0c2534c1fe255bb1c5c74d47f_edges.jpg,3.140096,0.448584,edges,mama13,2022-04-27_09h57.21.392,ratings,2022.1.1,Win32,59.99880002
1.750374258,4.3936,1.434517249,5.3601,0,90,90,519,1,860_05c4e22518a30d3d2add458a8fc6488f87b9b02dd8e385ded939f025_blur.jpg,1.955092,0.3097172,blurring,mama13,2022-04-27_09h57.21.392,ratings,2022.1.1,Win32,59.99880002
-3.000641585,2.5953,-3.527069933,3.7643,0,91,91,384,1,646_577760d718dab44c6f04d77408c5644a120065ce07a9503957d0850a_orig.jpg,-2.690668,2.61324,original,mama13,2022-04-27_09h57.21.392,ratings,2022.1.1,Win32,59.99880002
0.500106931,2.2635,0.526428348,3.1464,0,92,92,269,1,431_ab5a1dbbe9292ac7f74e276cdabcd372e2c1f852ff34bf7cc6646ef8_circblurext.jpg,3.102584,0.354334,circularblurringext,mama13,2022-04-27_09h57.21.392,ratings,2022.1.1,Win32,59.99880002
-0.526428348,14.1803,-0.763321105,15.3642,0,93,93,314,1,459_46e25de472bb056cb470716d30937415f7344bfc4354d6eb710d8c9f_edges.jpg,0.03174604,0.0,edges,mama13,2022-04-27_09h57.21.392,ratings,2022.1.1,Win32,59.99880002
-2.02674914,3.7802,-1.908302762,5.6156,0,94,94,558,1,1022_cf035e583d41a856836f8b0ae314ecbe79dffd9e40ef6a08cc26028f_orig.jpg,-0.2516452,3.05846,original,mama13,2022-04-27_09h57.21.392,ratings,2022.1.1,Win32,59.99880002
-1.105499531,3.1288,-1.01337457,5.882,0,95,95,61,1,156_08e8cf8f04630e9213e610580de73f51572d1d589878648700bae4dc_bw.jpg,2.222224,0.0,blackwhite,mama13,2022-04-27_09h57.21.392,ratings,2022.1.1,Win32,59.99880002
1.11866024,3.3979,1.079178114,4.5315,0,96,96,473,1,741_2b218fb015e3da83db73cacdb52e61e0c2534c1fe255bb1c5c74d47f_circblurext.jpg,3.140096,0.448584,circularblurringext,mama13,2022-04-27_09h57.21.392,ratings,2022.1.1,Win32,59.99880002
-4,3.6456,-4,6.88,0,97,97,313,1,459_46e25de472bb056cb470716d30937415f7344bfc4354d6eb710d8c9f_bw.jpg,0.03174604,0.0,blackwhite,mama13,2022-04-27_09h57.21.392,ratings,2022.1.1,Win32,59.99880002
-1.618767171,5.4103,-2.605820323,6.9413,0,98,98,329,1,468_8b69b13120daebadd8a4a3166e1419f2404395cba231307a4efa9fde_circblurext.jpg,2.031744,0.2539684,circularblurringext,mama13,2022-04-27_09h57.21.392,ratings,2022.1.1,Win32,59.99880002
0.329017718,3.7118,0.539589057,4.9454,0,99,99,144,1,354_e46c3ec6fb00773f64f2bcd212385f253c389808fe724b7cf8611051_orig.jpg,2.018292,0.0,original,mama13,2022-04-27_09h57.21.392,ratings,2022.1.1,Win32,59.99880002
0.671196144,2.589,0.868606774,4.3294,0,100,100,124,1,347_27f0e47c2722605b950ccf9fa900f78271e4c3c874064ab5dacac160_circblurint.jpg,1.838948,0.3097172,circularblurringint,mama13,2022-04-27_09h57.21.392,ratings,2022.1.1,Win32,59.99880002
1.079178114,8.9482,0.894928192,10.1485,0,101,101,116,1,332_4d584229bdae2e1782f77f0e953e528f13c3dfa79b4b94736c0310fa_edges.jpg,3.157348,0.483092,edges,mama13,2022-04-27_09h57.21.392,ratings,2022.1.1,Win32,59.99880002
-1.579285044,3.1361,-1.671410005,5.6279,0,102,102,43,1,92_5d20d78a8e57e628c6930676473a4e0a485e715841efd6286c660020_bw.jpg,2.126984,0.0,blackwhite,mama13,2022-04-27_09h57.21.392,ratings,2022.1.1,Win32,59.99880002
-0.513267639,3.0178,-1.184463783,4.1846,0,103,103,597,1,1239_cee00457f4cfb76a407b12fd5ad714d440a4614c1e5467ee16caf618_blur.jpg,-0.03174604,0.190476,blurring,mama13,2022-04-27_09h57.21.392,ratings,2022.1.1,Win32,59.99880002
-0.250053465,2.581,-0.947571027,5.9322,0,104,104,63,1,156_08e8cf8f04630e9213e610580de73f51572d1d589878648700bae4dc_blur.jpg,2.222224,0.0,blurring,mama13,2022-04-27_09h57.21.392,ratings,2022.1.1,Win32,59.99880002
1.000213862,2.2681,0.513267639,3.4274,0,105,105,543,1,1005_b980c0747d20935bc63cc27a9e05ce2ff5bae98f859872ec48edd7f5_blur.jpg,3.428572,-0.476192,blurring,mama13,2022-04-27_09h57.21.392,ratings,2022.1.1,Win32,59.99880002
2.855873789,2.2011,1.276588744,5.5838,0,106,106,445,1,709_69c01dcde028a2a1a913f1a2a5026ae1748484f75c89217a040c6791_bw.jpg,1.432444,-0.01935732,blackwhite,mama13,2022-04-27_09h57.21.392,ratings,2022.1.1,Win32,59.99880002
0.723838979,3.4621,-1.158142366,5.5806,0,107,107,456,1,720_483c541c48959a597fcf44320941afaf8b7695105f90d65b5f6b30f2_orig.jpg,2.158732,-0.2539684,original,mama13,2022-04-27_09h57.21.392,ratings,2022.1.1,Win32,59.99880002
-1.302910162,3.6822,-1.434517249,5.0484,0,108,108,70,1,172_c641c6c56ca6b594b773084e1363c852abdb65f988d7ff802ee503f2_circblurint.jpg,0.379572,0.01725328,circularblurringint,mama13,2022-04-27_09h57.21.392,ratings,2022.1.1,Win32,59.99880002
-4,3.2953,-4,6.7119,0,109,109,166,1,361_b5541309527dc3c2422f45a95ebb0ed32005e6fe10d0489a1ff1fbdc_circblurint.jpg,-3.987612,-0.2516452,circularblurringint,mama13,2022-04-27_09h57.21.392,ratings,2022.1.1,Win32,59.99880002
-0.592231892,2.9706,-0.315857009,4.7802,0,110,110,290,1,442_7449d79dae5d652af9b2429872cabdef938646ba024db2f431b3b28d_edges.jpg,1.619048,0.126984,edges,mama13,2022-04-27_09h57.21.392,ratings,2022.1.1,Win32,59.99880002
-2.618981032,3.2189,-3.000641585,4.975,0,111,111,294,1,449_9c1e990a3480e5b51430fe76b0188e69ba2468fd6a866b88b2d0dd75_orig.jpg,0.095238,0.03174604,original,mama13,2022-04-27_09h57.21.392,ratings,2022.1.1,Win32,59.99880002
1.158142366,2.6018,0.802803231,3.6245,0,112,112,173,1,365_45a719cabbc9aa308c4fcb30d529489c6966ac4073874af84f665c61_circblurext.jpg,2.507936,-1.968252,circularblurringext,mama13,2022-04-27_09h57.21.392,ratings,2022.1.1,Win32,59.99880002
3.44810568,3.7876,2.908516624,5.6378,0,113,113,73,1,236_f645730e1eb06155418c9a571329cc7fa320654fcaaedf1048b5cc11_bw.jpg,2.253968,0.0,blackwhite,mama13,2022-04-27_09h57.21.392,ratings,2022.1.1,Win32,59.99880002
-2.605820323,6.6244,-2.974320167,5.3941,0,114,114,399,1,683_a004ad18331da968da5debdd15e1447dd7748750af0bc6c57b844200_blur.jpg,-2.91956,2.466524,blurring,mama13,2022-04-27_09h57.21.392,ratings,2022.1.1,Win32,59.99880002
-0.802803231,4.969,-1.052856696,6.2357,0,115,115,14,1,39_2fafccaa4dc69045a05845f59c6b3cd2edcf7e0e0c108b24e553afe0_edges.jpg,2.022756,0.463548,edges,mama13,2022-04-27_09h57.21.392,ratings,2022.1.1,Win32,59.99880002
-3.408623554,4.4348,-3.277016467,5.7126,0,116,116,163,1,361_b5541309527dc3c2422f45a95ebb0ed32005e6fe10d0489a1ff1fbdc_bw.jpg,-3.987612,-0.2516452,blackwhite,mama13,2022-04-27_09h57.21.392,ratings,2022.1.1,Win32,59.99880002
-0.697517561,5.1811,-0.500106931,6.5417,0,117,117,557,1,1014_a5c212ca979d482cf94c2db7697aba75620391a64b030ab7ad2bbecf_circblurext.jpg,-3.174604,-1.374372,circularblurringext,mama13,2022-04-27_09h57.21.392,ratings,2022.1.1,Win32,59.99880002
-2.961159458,1.528,-2.816391663,2.5942,0,118,118,135,1,349_8809a67686d34844c915d7700e2ea72ad1c02ae232ae0d3cc0e458d4_blur.jpg,-3.619048,-0.2857144,blurring,mama13,2022-04-27_09h57.21.392,ratings,2022.1.1,Win32,59.99880002
-0.539589057,3.2718,-0.552749766,4.8072,0,119,119,584,1,1225_59c67a821456f2cce3e5acf66d7f00076bd02caffc984c1eb0df794e_edges.jpg,-0.444444,3.809524,edges,mama13,2022-04-27_09h57.21.392,ratings,2022.1.1,Win32,59.99880002
-1.079178114,2.2367,-1.842499219,3.8979,0,120,120,357,1,500_3b520c7f352afa1a9f8c07e56cc0588cdc04d25ff6e7b602b5e280cb_blur.jpg,-0.8328,3.11766,blurring,mama13,2022-04-27_09h57.21.392,ratings,2022.1.1,Win32,59.99880002
-2.079391975,2.8708,-2.118874101,4.3119,0,121,121,362,1,508_a7a9519cdc7aad6844030f4e6cd96cffd1b9c49b71e20ea52789bda2_edges.jpg,-3.000388,-1.29694,edges,mama13,2022-04-27_09h57.21.392,ratings,2022.1.1,Win32,59.99880002
-2.145195519,2.1656,-2.553177489,3.3501,0,122,122,387,1,646_577760d718dab44c6f04d77408c5644a120065ce07a9503957d0850a_blur.jpg,-2.690668,2.61324,blurring,mama13,2022-04-27_09h57.21.392,ratings,2022.1.1,Win32,59.99880002
1.342392288,14.7198,-2.184677645,13.2011,0,123,123,180,1,369_98db62a1bdabfd1bc551180da6658005b461585cd21614633cf76470_orig.jpg,2.190476,-0.03174604,original,mama13,2022-04-27_09h57.21.392,ratings,2022.1.1,Win32,59.99880002
-0.789642522,2.6152,-0.013160709,4.6416,0,124,124,582,1,1225_59c67a821456f2cce3e5acf66d7f00076bd02caffc984c1eb0df794e_orig.jpg,-0.444444,3.809524,original,mama13,2022-04-27_09h57.21.392,ratings,2022.1.1,Win32,59.99880002
0.802803231,3.8327,0.579071183,5.0661,0,125,125,255,1,416_5eb54976bb41ce2a6d129ef985f792e716f010fb9b69b15f50f5d2db_blur.jpg,-2.58766,2.602972,blurring,mama13,2022-04-27_09h57.21.392,ratings,2022.1.1,Win32,59.99880002
0.565910474,3.0529,0.368499844,4.0988,0,126,126,221,1,396_208259ea431d47bb7f3946213eb099834eb119756ce304ad473d4d9f_circblurext.jpg,2.857144,-0.3809524,circularblurringext,mama13,2022-04-27_09h57.21.392,ratings,2022.1.1,Win32,59.99880002
1.026535279,2.1361,1.223945909,3.3735,0,127,127,395,1,663_aaf52107fe3a86392530d88b34e86f9d2b6820714cad98d1e3c2cb67_circblurext.jpg,2.58766,0.0918696,circularblurringext,mama13,2022-04-27_09h57.21.392,ratings,2022.1.1,Win32,59.99880002
-3.105927254,3.9328,-3.671837728,6.199,0,128,128,323,1,460_e06b3af7ff2f2bfb5f9b6e3d5dc25b9aaa40b84823fac8fd934621bd_circblurext.jpg,-3.430992,-1.607468,circularblurringext,mama13,2022-04-27_09h57.21.392,ratings,2022.1.1,Win32,59.99880002
-2.053070558,7.3151,-1.776695675,8.8513,0,129,129,460,1,720_483c541c48959a597fcf44320941afaf8b7695105f90d65b5f6b30f2_circblurint.jpg,2.158732,-0.2539684,circularblurringint,mama13,2022-04-27_09h57.21.392,ratings,2022.1.1,Win32,59.99880002
-1.52664221,5.433,-1.368713705,4.3156,0,130,130,560,1,1022_cf035e583d41a856836f8b0ae314ecbe79dffd9e40ef6a08cc26028f_edges.jpg,-0.2516452,3.05846,edges,mama13,2022-04-27_09h57.21.392,ratings,2022.1.1,Win32,59.99880002
0.276374883,2.3809,-0.131607087,6.9041,0,131,131,352,1,498_305b74cdc4784d9d25e72724302e5402def70177ea31ae7e25fab66b_circblurint.jpg,3.04762,-0.444444,circularblurringint,mama13,2022-04-27_09h57.21.392,ratings,2022.1.1,Win32,59.99880002
0.513267639,6.0268,0.486946222,7.715,0,132,132,366,1,616_05a637f5281666f53d4e2ef69351485fc21d629b37ee2006b2076eb6_orig.jpg,-2.380952,-0.832364,original,mama13,2022-04-27_09h57.21.392,ratings,2022.1.1,Win32,59.99880002
-1.395035123,2.1895,-2.079391975,3.6222,0,133,133,416,1,692_7d7eaf20e6de8956f0fca7500ace97a8599aa8b605a7d690cdb28724_edges.jpg,-2.063492,-1.26984,edges,mama13,2022-04-27_09h57.21.392,ratings,2022.1.1,Win32,59.99880002
-0.500106931,12.7043,-0.829124648,13.9114,0,134,134,299,1,449_9c1e990a3480e5b51430fe76b0188e69ba2468fd6a866b88b2d0dd75_circblurext.jpg,0.095238,0.03174604,circularblurringext,mama13,2022-04-27_09h57.21.392,ratings,2022.1.1,Win32,59.99880002
-1.855659927,1.875,-1.93462418,2.8061,0,135,135,555,1,1014_a5c212ca979d482cf94c2db7697aba75620391a64b030ab7ad2bbecf_blur.jpg,-3.174604,-1.374372,blurring,mama13,2022-04-27_09h57.21.392,ratings,2022.1.1,Win32,59.99880002
0.658035435,6.4896,0.802803231,10.8893,0,136,136,457,1,720_483c541c48959a597fcf44320941afaf8b7695105f90d65b5f6b30f2_bw.jpg,2.158732,-0.2539684,blackwhite,mama13,2022-04-27_09h57.21.392,ratings,2022.1.1,Win32,59.99880002
-0.10528567,3.0543,-0.723838979,5.0745,0,137,137,65,1,156_08e8cf8f04630e9213e610580de73f51572d1d589878648700bae4dc_circblurext.jpg,2.222224,0.0,circularblurringext,mama13,2022-04-27_09h57.21.392,ratings,2022.1.1,Win32,59.99880002
-3.935051903,2.1146,-3.763962689,3.6457,0,138,138,322,1,460_e06b3af7ff2f2bfb5f9b6e3d5dc25b9aaa40b84823fac8fd934621bd_circblurint.jpg,-3.430992,-1.607468,circularblurringint,mama13,2022-04-27_09h57.21.392,ratings,2022.1.1,Win32,59.99880002
1.158142366,3.8627,1.052856696,4.9633,0,139,139,426,1,694_7a14b8ab7c564dcb0f628c4de7f6cb54e4c5f6601f774bf167641c37_orig.jpg,1.819588,0.116144,original,mama13,2022-04-27_09h57.21.392,ratings,2022.1.1,Win32,59.99880002
2.566338197,1.7958,2.289963315,3.1454,0,140,140,48,1,112_b6a4ce721c2e42943d7d8b168751d74cd2f372b1cd4fed5a4404faec_orig.jpg,2.107036,0.505688,original,mama13,2022-04-27_09h57.21.392,ratings,2022.1.1,Win32,59.99880002
2.553177489,1.7472,2.421570402,2.9989,0,141,141,540,1,1005_b980c0747d20935bc63cc27a9e05ce2ff5bae98f859872ec48edd7f5_orig.jpg,3.428572,-0.476192,original,mama13,2022-04-27_09h57.21.392,ratings,2022.1.1,Win32,59.99880002
1.82933851,1.8014,1.750374258,3.014,0,142,142,231,1,407_578d31d32e806706dde2563213f130b90e621abfed0e47ecabd85d27_blur.jpg,3.5873,-0.444444,blurring,mama13,2022-04-27_09h57.21.392,ratings,2022.1.1,Win32,59.99880002
1.210785201,4.3583,0.973892444,3.1574,0,143,143,80,1,242_85283f6935a89812ab229dcad9ba184529c9242ac3106d768ecf3ab3_edges.jpg,2.14918,-0.2949852,edges,mama13,2022-04-27_09h57.21.392,ratings,2022.1.1,Win32,59.99880002
-1.355552997,4.5886,-3.303337885,6.57,0,144,144,58,1,137_0e6a04243c0a42a5e2528a2d181255ca2a4b7bd6e7978c5c2059c69f_circblurint.jpg,-0.95238,2.095236,circularblurringint,mama13,2022-04-27_09h57.21.392,ratings,2022.1.1,Win32,59.99880002
1.789856384,2.1202,1.329231579,3.2053,0,145,145,257,1,416_5eb54976bb41ce2a6d129ef985f792e716f010fb9b69b15f50f5d2db_circblurext.jpg,-2.58766,2.602972,circularblurringext,mama13,2022-04-27_09h57.21.392,ratings,2022.1.1,Win32,59.99880002
-0.526428348,3.2524,-0.921249609,5.0084,0,146,146,422,1,692_e3e3bf88684fbbcdb9849a4147f9e2fcd39b0f083554a829aca4e9fa_edges.jpg,-0.44522,3.135888,edges,mama13,2022-04-27_09h57.21.392,ratings,2022.1.1,Win32,59.99880002
-4,4.9045,-4,8.0854,0,147,147,244,1,411_adfd0d5782129756321ff671d0cfb712528504c66c863df11aabd1e7_circblurint.jpg,-3.392332,-1.369576,circularblurringint,mama13,2022-04-27_09h57.21.392,ratings,2022.1.1,Win32,59.99880002
-1.329231579,8.5111,-1.868820636,13.3611,0,148,148,192,1,379_eeaa6d9bf5a4ef205dc48bc505cf3a7f24ea86e99af9b371e03602a7_orig.jpg,-0.3926308,2.88936,original,mama13,2022-04-27_09h57.21.392,ratings,2022.1.1,Win32,59.99880002
-0.881767483,4.227,-1.263428036,5.3295,0,149,149,375,1,620_9674719009d75dcfeaed7f15932c43e1fd1af5e25d47b8aadd61efe2_blur.jpg,-0.561364,1.142084,blurring,mama13,2022-04-27_09h57.21.392,ratings,2022.1.1,Win32,59.99880002
-0.829124648,1.9834,-1.052856696,3.4158,0,150,150,21,1,48_2cc936b2483ab2944c9158e163342b874ef6c1492fd8fca08c0e096e_blur.jpg,-1.264224,-0.779604,blurring,mama13,2022-04-27_09h57.21.392,ratings,2022.1.1,Win32,59.99880002
1.171303075,3.368,1.11866024,4.8846,0,151,151,464,1,736_bb85db1bcda8eb34299aa5791ac65a0a7c343266eb2d6e6e328ec0e1_edges.jpg,3.650792,-0.03174604,edges,mama13,2022-04-27_09h57.21.392,ratings,2022.1.1,Win32,59.99880002
1.092338822,8.781,0.065803544,10.5301,0,152,152,31,1,60_ad52063167538de24f94d7dfd04808cb94cf8f426c40871d2f126505_bw.jpg,2.158732,0.0,blackwhite,mama13,2022-04-27_09h57.21.392,ratings,2022.1.1,Win32,59.99880002
-1.500320792,2.3824,-1.855659927,4.3821,0,153,153,354,1,500_3b520c7f352afa1a9f8c07e56cc0588cdc04d25ff6e7b602b5e280cb_orig.jpg,-0.8328,3.11766,original,mama13,2022-04-27_09h57.21.392,ratings,2022.1.1,Win32,59.99880002
-1.566124336,3.3452,-3.211212924,6.114,0,154,154,42,1,92_5d20d78a8e57e628c6930676473a4e0a485e715841efd6286c660020_orig.jpg,2.126984,0.0,original,mama13,2022-04-27_09h57.21.392,ratings,2022.1.1,Win32,59.99880002
-0.6053926,5.1122,-0.750160396,6.2319,0,155,155,92,1,258_d26019382777d2159a974a7654923e71598135ce2cd710cea1f92865_edges.jpg,3.497684,-0.61104,edges,mama13,2022-04-27_09h57.21.392,ratings,2022.1.1,Win32,59.99880002
0.381660552,1.9646,0.763321105,3.5817,0,156,156,410,1,687_e3b018945792a574962235c88c553b7c318c75eec2596478e8a7b877_edges.jpg,3.63918,-0.42586,edges,mama13,2022-04-27_09h57.21.392,ratings,2022.1.1,Win32,59.99880002
-1.092338822,5.1124,-1.092338822,6.5987,0,157,157,484,1,759_95e1c46ed9a337414d5c8eada8fa8b9632e18751f5ce6ed587806e91_circblurint.jpg,2.126984,0.0,circularblurringint,mama13,2022-04-27_09h57.21.392,ratings,2022.1.1,Win32,59.99880002
0.263214174,2.0306,0.052642835,3.3147,0,158,158,581,1,1061_665178b9cb0bc869cc2e2b68def4838db04e66f9531098fb75875a09_circblurext.jpg,0.3492064,-0.3174604,circularblurringext,mama13,2022-04-27_09h57.21.392,ratings,2022.1.1,Win32,59.99880002
-1.737213549,5.5956,-1.987267014,7.0801,0,159,159,194,1,379_eeaa6d9bf5a4ef205dc48bc505cf3a7f24ea86e99af9b371e03602a7_edges.jpg,-0.3926308,2.88936,edges,mama13,2022-04-27_09h57.21.392,ratings,2022.1.1,Win32,59.99880002
-2.855873789,3.0087,-3.198052215,4.0238,0,160,160,552,1,1014_a5c212ca979d482cf94c2db7697aba75620391a64b030ab7ad2bbecf_orig.jpg,-3.174604,-1.374372,original,mama13,2022-04-27_09h57.21.392,ratings,2022.1.1,Win32,59.99880002
0.223732048,4.5614,0.026321417,5.8971,0,161,161,164,1,361_b5541309527dc3c2422f45a95ebb0ed32005e6fe10d0489a1ff1fbdc_edges.jpg,-3.987612,-0.2516452,edges,mama13,2022-04-27_09h57.21.392,ratings,2022.1.1,Win32,59.99880002
1.658249297,3.7024,1.447677957,4.6136,0,162,162,76,1,236_f645730e1eb06155418c9a571329cc7fa320654fcaaedf1048b5cc11_circblurint.jpg,2.253968,0.0,circularblurringint,mama13,2022-04-27_09h57.21.392,ratings,2022.1.1,Win32,59.99880002
2.408409693,2.4521,3.026963002,4.036,0,163,163,336,1,492_a1a4d288d3bc486c83c3b6a835c42891989f5ba781633932298a7676_orig.jpg,3.406892,-0.44522,original,mama13,2022-04-27_09h57.21.392,ratings,2022.1.1,Win32,59.99880002
-1.105499531,2.4724,-1.987267014,3.808,0,164,164,514,1,858_2f6539ee36aba48c38dc716d4f7c3ae93367d6ddf23ab41745d4172c_circblurint.jpg,0.0623832,0.176752,circularblurringint,mama13,2022-04-27_09h57.21.392,ratings,2022.1.1,Win32,59.99880002
-1.052856696,10.1756,-2.184677645,11.2087,0,165,165,207,1,381_5935a9f9796adce2f1539af6c75bcdc0c80d847a2ce9b77cf59b7672_blur.jpg,-1.327432,-0.442476,blurring,mama13,2022-04-27_09h57.21.392,ratings,2022.1.1,Win32,59.99880002
0.881767483,5.1584,0.131607087,6.5027,0,166,166,114,1,332_4d584229bdae2e1782f77f0e953e528f13c3dfa79b4b94736c0310fa_orig.jpg,3.157348,0.483092,original,mama13,2022-04-27_09h57.21.392,ratings,2022.1.1,Win32,59.99880002
0.236892757,6.6011,-0.210571339,7.8509,0,167,167,438,1,700_59cb565f134f1afd066d7b6d936c6511b7cb76de0e9cbb5ce15124ad_orig.jpg,0.0,0.0,original,mama13,2022-04-27_09h57.21.392,ratings,2022.1.1,Win32,59.99880002
-0.776481814,6.9625,-0.565910474,5.5493,0,168,168,434,1,694_f80f33613b268beffd6c044537cf3b44a84683d6e889bc37b8e9c34b_edges.jpg,-0.3785616,3.34728,edges,mama13,2022-04-27_09h57.21.392,ratings,2022.1.1,Win32,59.99880002
0.697517561,1.7316,0.592231892,2.799,0,169,169,351,1,498_305b74cdc4784d9d25e72724302e5402def70177ea31ae7e25fab66b_blur.jpg,3.04762,-0.444444,blurring,mama13,2022-04-27_09h57.21.392,ratings,2022.1.1,Win32,59.99880002
-1.434517249,2.5827,-1.697731423,3.7314,0,170,170,423,1,692_e3e3bf88684fbbcdb9849a4147f9e2fcd39b0f083554a829aca4e9fa_blur.jpg,-0.44522,3.135888,blurring,mama13,2022-04-27_09h57.21.392,ratings,2022.1.1,Win32,59.99880002
0.973892444,5.3149,0.868606774,7.9825,0,171,171,47,1,92_5d20d78a8e57e628c6930676473a4e0a485e715841efd6286c660020_circblurext.jpg,2.126984,0.0,circularblurringext,mama13,2022-04-27_09h57.21.392,ratings,2022.1.1,Win32,59.99880002
-2.829552371,6.716,-2.43473111,8.9819,0,172,172,142,1,353_44e285740cb41818482ac93fc5fbd72c18029444a1d7506c9fc053e7_circblurint.jpg,-3.232676,-0.87108,circularblurringint,mama13,2022-04-27_09h57.21.392,ratings,2022.1.1,Win32,59.99880002
-1.487160084,1.935,-1.763534966,3.3012,0,173,173,213,1,394_8e3a0cb945144d53bd1ace04b6256237ed9dcbbd9cb83f8a4886b0e6_blur.jpg,-2.593884,2.651956,blurring,mama13,2022-04-27_09h57.21.392,ratings,2022.1.1,Win32,59.99880002
1.697731423,2.5311,2.158356227,3.7812,0,174,174,349,1,498_305b74cdc4784d9d25e72724302e5402def70177ea31ae7e25fab66b_bw.jpg,3.04762,-0.444444,blackwhite,mama13,2022-04-27_09h57.21.392,ratings,2022.1.1,Win32,59.99880002
1.960945597,4.3596,2.105713393,5.2637,0,175,175,465,1,736_bb85db1bcda8eb34299aa5791ac65a0a7c343266eb2d6e6e328ec0e1_blur.jpg,3.650792,-0.03174604,blurring,mama13,2022-04-27_09h57.21.392,ratings,2022.1.1,Win32,59.99880002
-4,2.8995,-4,4.9817,0,176,176,88,1,243_beddb302dcb21071d88c8d2cab07002050d36b3001ef28f89389fa56_circblurint.jpg,-0.3450656,-0.2070392,circularblurringint,mama13,2022-04-27_09h57.21.392,ratings,2022.1.1,Win32,59.99880002
0.065803544,2.4983,-0.197410631,5.9477,0,177,177,190,1,369_c99797771115d7627d4abe3415f814497288f91a7be1a04c17c776b9_circblurint.jpg,3.619824,-0.174216,circularblurringint,mama13,2022-04-27_09h57.21.392,ratings,2022.1.1,Win32,59.99880002
1.184463783,3.127,1.473999375,4.3818,0,178,178,348,1,498_305b74cdc4784d9d25e72724302e5402def70177ea31ae7e25fab66b_orig.jpg,3.04762,-0.444444,original,mama13,2022-04-27_09h57.21.392,ratings,2022.1.1,Win32,59.99880002
-0.013160709,3.3628,-0.881767483,5.3468,0,179,179,99,1,267_792043debad81ce271cec5b3c3bd9d264efc13f362bec9c7a3f72fe7_blur.jpg,1.980616,0.2107036,blurring,mama13,2022-04-27_09h57.21.392,ratings,2022.1.1,Win32,59.99880002
-3.171730798,6.2492,-4,4.8996,0,180,180,333,1,482_a1cd28915c5044c018195ab0fff10dcc95e385246b045a7cd4463ff7_blur.jpg,-3.361852,-1.555612,blurring,mama13,2022-04-27_09h57.21.392,ratings,2022.1.1,Win32,59.99880002
-0.631714018,2.3637,-0.644874727,3.5635,0,181,181,386,1,646_577760d718dab44c6f04d77408c5644a120065ce07a9503957d0850a_edges.jpg,-2.690668,2.61324,edges,mama13,2022-04-27_09h57.21.392,ratings,2022.1.1,Win32,59.99880002
-2.684784576,2.4483,-3.14540938,4.2151,0,182,182,575,1,1039_d64da8480fc6e94dcdc513237d600570ae0b9fe48795ac6a8b2d29a7_circblurext.jpg,-2.507936,-1.142856,circularblurringext,mama13,2022-04-27_09h57.21.392,ratings,2022.1.1,Win32,59.99880002
-3.369141428,2.2486,-3.14540938,4.6493,0,183,183,535,1,986_a77edb21e78bc3a6aa7406517824596b3496ad6c657b6befb84cf370_bw.jpg,-3.906316,-0.60496,blackwhite,mama13,2022-04-27_09h57.21.392,ratings,2022.1.1,Win32,59.99880002
-0.078964252,3.0622,1.052856696,4.8124,0,184,184,546,1,1010_06d15f44b979c086561137000ec070ba4cd479856f92840a7850b2bf_orig.jpg,0.189786,-0.189786,original,mama13,2022-04-27_09h57.21.392,ratings,2022.1.1,Win32,59.99880002
-0.565910474,4.5957,-0.486946222,5.645,0,185,185,440,1,700_59cb565f134f1afd066d7b6d936c6511b7cb76de0e9cbb5ce15124ad_edges.jpg,0.0,0.0,edges,mama13,2022-04-27_09h57.21.392,ratings,2022.1.1,Win32,59.99880002
-1.93462418,2.8094,-3.487587807,4.079,0,186,186,16,1,39_2fafccaa4dc69045a05845f59c6b3cd2edcf7e0e0c108b24e553afe0_circblurint.jpg,2.022756,0.463548,circularblurringint,mama13,2022-04-27_09h57.21.392,ratings,2022.1.1,Win32,59.99880002
1.079178114,2.0685,1.092338822,3.1515,0,187,187,230,1,407_578d31d32e806706dde2563213f130b90e621abfed0e47ecabd85d27_edges.jpg,3.5873,-0.444444,edges,mama13,2022-04-27_09h57.21.392,ratings,2022.1.1,Win32,59.99880002
-2.64530245,1.7444,-3.369141428,2.7357,0,188,188,273,1,434_ba36d91204d7e578001f6a545d7501e65d209554def5a3c8b7583825_blur.jpg,-3.523808,1.428572,blurring,mama13,2022-04-27_09h57.21.392,ratings,2022.1.1,Win32,59.99880002
-2.289963315,4.3482,-3.119087963,5.8155,0,189,189,197,1,379_eeaa6d9bf5a4ef205dc48bc505cf3a7f24ea86e99af9b371e03602a7_circblurext.jpg,-0.3926308,2.88936,circularblurringext,mama13,2022-04-27_09h57.21.392,ratings,2022.1.1,Win32,59.99880002
0.421142679,2.2967,1.381874414,11.1984,0,190,190,40,1,82_43f4d5aec7c2e5bd495473f6708a0f2d47c9fe34e1fe9436646cb036_circblurint.jpg,2.022756,0.505688,circularblurringint,mama13,2022-04-27_09h57.21.392,ratings,2022.1.1,Win32,59.99880002
-0.434303387,3.0982,-1.131820949,4.4149,0,191,191,594,1,1239_cee00457f4cfb76a407b12fd5ad714d440a4614c1e5467ee16caf618_orig.jpg,-0.03174604,0.190476,original,mama13,2022-04-27_09h57.21.392,ratings,2022.1.1,Win32,59.99880002
1.105499531,4.1128,1.684570714,5.1487,0,192,192,277,1,440_9bf7e8609729bf888835168834da6c3ff30b75d0d4f36e2ee6918bcc_bw.jpg,-2.284164,2.710028,blackwhite,mama13,2022-04-27_09h57.21.392,ratings,2022.1.1,Win32,59.99880002
-0.934410318,1.7985,-1.131820949,2.7162,0,193,193,563,1,1022_cf035e583d41a856836f8b0ae314ecbe79dffd9e40ef6a08cc26028f_circblurext.jpg,-0.2516452,3.05846,circularblurringext,mama13,2022-04-27_09h57.21.392,ratings,2022.1.1,Win32,59.99880002
-2.43473111,2.0649,-2.921677332,3.465,0,194,194,510,1,858_2f6539ee36aba48c38dc716d4f7c3ae93367d6ddf23ab41745d4172c_orig.jpg,0.0623832,0.176752,original,mama13,2022-04-27_09h57.21.392,ratings,2022.1.1,Win32,59.99880002
-0.500106931,3.3443,-0.592231892,4.546,0,195,195,296,1,449_9c1e990a3480e5b51430fe76b0188e69ba2468fd6a866b88b2d0dd75_edges.jpg,0.095238,0.03174604,edges,mama13,2022-04-27_09h57.21.392,ratings,2022.1.1,Win32,59.99880002
-0.460624805,9.5745,-0.960731735,12.2192,0,196,196,155,1,355_00a76f54934d36566dd0e7b091b8aa6a56d8e6b32d349aa578a10b45_circblurext.jpg,2.910052,0.3439152,circularblurringext,mama13,2022-04-27_09h57.21.392,ratings,2022.1.1,Win32,59.99880002
0.118446378,3.8917,0.065803544,5.3851,0,197,197,289,1,442_7449d79dae5d652af9b2429872cabdef938646ba024db2f431b3b28d_bw.jpg,1.619048,0.126984,blackwhite,mama13,2022-04-27_09h57.21.392,ratings,2022.1.1,Win32,59.99880002
-0.723838979,3.2494,-0.908088901,4.4513,0,198,198,71,1,172_c641c6c56ca6b594b773084e1363c852abdb65f988d7ff802ee503f2_circblurext.jpg,0.379572,0.01725328,circularblurringext,mama13,2022-04-27_09h57.21.392,ratings,2022.1.1,Win32,59.99880002
-3.013802293,2.1482,-3.079605837,3.2813,0,199,199,258,1,416_8a1f874e0057d67a4e6955865ba88b2d8ce2c8b4469589307687a723_orig.jpg,-1.753336,3.088264,original,mama13,2022-04-27_09h57.21.392,ratings,2022.1.1,Win32,59.99880002
-2.632141741,1.915,-2.43473111,3.2649,0,200,200,157,1,358_157f8ac929713531a15b1ecf115e7b659cb90e83d675251e368d165f_bw.jpg,-3.777776,-0.571428,blackwhite,mama13,2022-04-27_09h57.21.392,ratings,2022.1.1,Win32,59.99880002
2.000427723,1.847,2.750588119,5.0623,0,201,201,233,1,407_578d31d32e806706dde2563213f130b90e621abfed0e47ecabd85d27_circblurext.jpg,3.5873,-0.444444,circularblurringext,mama13,2022-04-27_09h57.21.392,ratings,2022.1.1,Win32,59.99880002
-3.237534341,1.7871,-2.684784576,4.506,0,202,202,137,1,349_8809a67686d34844c915d7700e2ea72ad1c02ae232ae0d3cc0e458d4_circblurext.jpg,-3.619048,-0.2857144,circularblurringext,mama13,2022-04-27_09h57.21.392,ratings,2022.1.1,Win32,59.99880002
1.816177801,1.9224,2.23732048,3.1233,0,203,203,521,1,860_05c4e22518a30d3d2add458a8fc6488f87b9b02dd8e385ded939f025_circblurext.jpg,1.955092,0.3097172,circularblurringext,mama13,2022-04-27_09h57.21.392,ratings,2022.1.1,Win32,59.99880002
1.408195831,6.9066,1.408195831,2.9954,0,204,204,117,1,332_4d584229bdae2e1782f77f0e953e528f13c3dfa79b4b94736c0310fa_blur.jpg,3.157348,0.483092,blurring,mama13,2022-04-27_09h57.21.392,ratings,2022.1.1,Win32,59.99880002
-0.355339135,1.7904,-0.973892444,2.9628,0,205,205,64,1,156_08e8cf8f04630e9213e610580de73f51572d1d589878648700bae4dc_circblurint.jpg,2.222224,0.0,circularblurringint,mama13,2022-04-27_09h57.21.392,ratings,2022.1.1,Win32,59.99880002
2.461052528,3.0779,2.43473111,4.117,0,206,206,279,1,440_9bf7e8609729bf888835168834da6c3ff30b75d0d4f36e2ee6918bcc_blur.jpg,-2.284164,2.710028,blurring,mama13,2022-04-27_09h57.21.392,ratings,2022.1.1,Win32,59.99880002
-1.263428036,6.4985,-1.131820949,4.5813,0,207,207,284,1,440_dc6413e2b65369ee2587f4d85621742fe4ca87392d0a8ad2ea7d94e3_edges.jpg,-3.016216,1.69404,edges,mama13,2022-04-27_09h57.21.392,ratings,2022.1.1,Win32,59.99880002
-0.10528567,4.3144,-1.447677957,8.1982,0,208,208,96,1,267_792043debad81ce271cec5b3c3bd9d264efc13f362bec9c7a3f72fe7_orig.jpg,1.980616,0.2107036,original,mama13,2022-04-27_09h57.21.392,ratings,2022.1.1,Win32,59.99880002
-4,5.6654,-4,4.2317,0,209,209,242,1,411_adfd0d5782129756321ff671d0cfb712528504c66c863df11aabd1e7_edges.jpg,-3.392332,-1.369576,edges,mama13,2022-04-27_09h57.21.392,ratings,2022.1.1,Win32,59.99880002
-0.552749766,2.733,-0.565910474,4.0497,0,210,210,215,1,394_8e3a0cb945144d53bd1ace04b6256237ed9dcbbd9cb83f8a4886b0e6_circblurext.jpg,-2.593884,2.651956,circularblurringext,mama13,2022-04-27_09h57.21.392,ratings,2022.1.1,Win32,59.99880002
-1.197624492,3.5968,-1.605606462,4.6959,0,211,211,561,1,1022_cf035e583d41a856836f8b0ae314ecbe79dffd9e40ef6a08cc26028f_blur.jpg,-0.2516452,3.05846,blurring,mama13,2022-04-27_09h57.21.392,ratings,2022.1.1,Win32,59.99880002
0.934410318,7.3166,0.671196144,8.5155,0,212,212,458,1,720_483c541c48959a597fcf44320941afaf8b7695105f90d65b5f6b30f2_edges.jpg,2.158732,-0.2539684,edges,mama13,2022-04-27_09h57.21.392,ratings,2022.1.1,Win32,59.99880002
1.895142053,3.2823,1.987267014,4.4813,0,213,213,191,1,369_c99797771115d7627d4abe3415f814497288f91a7be1a04c17c776b9_circblurext.jpg,3.619824,-0.174216,circularblurringext,mama13,2022-04-27_09h57.21.392,ratings,2022.1.1,Win32,59.99880002
0.579071183,5.8945,0.223732048,7.0464,0,214,214,453,1,716_2ab64478147184c4df720a52cf621875addc9007cb2967e4a9a88909_blur.jpg,2.428484,0.0,blurring,mama13,2022-04-27_09h57.21.392,ratings,2022.1.1,Win32,59.99880002
0.131607087,5.4987,-0.829124648,8.3666,0,215,215,52,1,112_b6a4ce721c2e42943d7d8b168751d74cd2f372b1cd4fed5a4404faec_circblurint.jpg,2.107036,0.505688,circularblurringint,mama13,2022-04-27_09h57.21.392,ratings,2022.1.1,Win32,59.99880002
2.84271308,2.3298,3.132248672,3.8123,0,216,216,37,1,82_43f4d5aec7c2e5bd495473f6708a0f2d47c9fe34e1fe9436646cb036_bw.jpg,2.022756,0.505688,blackwhite,mama13,2022-04-27_09h57.21.392,ratings,2022.1.1,Win32,59.99880002
-0.500106931,3.4318,-0.526428348,4.6993,0,217,217,441,1,700_59cb565f134f1afd066d7b6d936c6511b7cb76de0e9cbb5ce15124ad_blur.jpg,0.0,0.0,blurring,mama13,2022-04-27_09h57.21.392,ratings,2022.1.1,Win32,59.99880002
0.842285357,8.3821,-0.065803544,9.7594,0,218,218,444,1,709_69c01dcde028a2a1a913f1a2a5026ae1748484f75c89217a040c6791_orig.jpg,1.432444,-0.01935732,original,mama13,2022-04-27_09h57.21.392,ratings,2022.1.1,Win32,59.99880002
-3.487587807,4.437,-3.619194894,5.8997,0,219,219,318,1,460_e06b3af7ff2f2bfb5f9b6e3d5dc25b9aaa40b84823fac8fd934621bd_orig.jpg,-3.430992,-1.607468,original,mama13,2022-04-27_09h57.21.392,ratings,2022.1.1,Win32,59.99880002
1.408195831,4.7059,1.355552997,5.6805,0,220,220,5,1,13_771f4fcf0a212d25d6a78565e7f34cc5ddd823e7afbdc77ef063326e_circblurext.jpg,2.190476,0.0,circularblurringext,mama13,2022-04-27_09h57.21.392,ratings,2022.1.1,Win32,59.99880002
-2.829552371,2.0851,-2.566338197,6.6008,0,221,221,139,1,353_44e285740cb41818482ac93fc5fbd72c18029444a1d7506c9fc053e7_bw.jpg,-3.232676,-0.87108,blackwhite,mama13,2022-04-27_09h57.21.392,ratings,2022.1.1,Win32,59.99880002
-1.131820949,3.6603,-1.803017092,6.0154,0,222,222,87,1,243_beddb302dcb21071d88c8d2cab07002050d36b3001ef28f89389fa56_blur.jpg,-0.3450656,-0.2070392,blurring,mama13,2022-04-27_09h57.21.392,ratings,2022.1.1,Win32,59.99880002
0.3026963,3.6959,0.223732048,7.3958,0,223,223,10,1,28_6318543b74eeb646a1735477ebc023fdc9ac3849bc0db1957c272a26_circblurint.jpg,2.811244,-0.74584,circularblurringint,mama13,2022-04-27_09h57.21.392,ratings,2022.1.1,Win32,59.99880002
0.908088901,15.413,1.171303075,14.1297,0,224,224,327,1,468_8b69b13120daebadd8a4a3166e1419f2404395cba231307a4efa9fde_blur.jpg,2.031744,0.2539684,blurring,mama13,2022-04-27_09h57.21.392,ratings,2022.1.1,Win32,59.99880002
1.052856696,3.3705,1.144981657,4.433,0,225,225,7,1,28_6318543b74eeb646a1735477ebc023fdc9ac3849bc0db1957c272a26_bw.jpg,2.811244,-0.74584,blackwhite,mama13,2022-04-27_09h57.21.392,ratings,2022.1.1,Win32,59.99880002
-2.474213236,1.951,-2.697945284,3.4849,0,226,226,538,1,986_a77edb21e78bc3a6aa7406517824596b3496ad6c657b6befb84cf370_circblurint.jpg,-3.906316,-0.60496,circularblurringint,mama13,2022-04-27_09h57.21.392,ratings,2022.1.1,Win32,59.99880002
-2.500534654,9.1549,-2.776909537,10.6158,0,227,227,250,1,414_0187bdf7007109b487865b6a9d388997a6817acf052a6a7cdd5b39d9_circblurint.jpg,-2.786708,-1.133056,circularblurringint,mama13,2022-04-27_09h57.21.392,ratings,2022.1.1,Win32,59.99880002
0.315857009,4.1868,0.460624805,5.1947,0,228,228,338,1,492_a1a4d288d3bc486c83c3b6a835c42891989f5ba781633932298a7676_edges.jpg,3.406892,-0.44522,edges,mama13,2022-04-27_09h57.21.392,ratings,2022.1.1,Win32,59.99880002
-1.158142366,4.2801,-1.500320792,5.9505,0,229,229,364,1,508_a7a9519cdc7aad6844030f4e6cd96cffd1b9c49b71e20ea52789bda2_circblurint.jpg,-3.000388,-1.29694,circularblurringint,mama13,2022-04-27_09h57.21.392,ratings,2022.1.1,Win32,59.99880002
-0.171089213,2.0118,-0.460624805,3.3471,0,230,230,225,1,403_57ac47f43882fc031a6067b1a388c0b2cbe8708dcbd2ff1019932eff_blur.jpg,-3.333332,-1.396824,blurring,mama13,2022-04-27_09h57.21.392,ratings,2022.1.1,Win32,59.99880002
-1.671410005,1.6332,-1.881981345,3.0912,0,231,231,556,1,1014_a5c212ca979d482cf94c2db7697aba75620391a64b030ab7ad2bbecf_circblurint.jpg,-3.174604,-1.374372,circularblurringint,mama13,2022-04-27_09h57.21.392,ratings,2022.1.1,Win32,59.99880002
-1.93462418,3.4007,-2.592659615,5.523,0,232,232,580,1,1061_665178b9cb0bc869cc2e2b68def4838db04e66f9531098fb75875a09_circblurint.jpg,0.3492064,-0.3174604,circularblurringint,mama13,2022-04-27_09h57.21.392,ratings,2022.1.1,Win32,59.99880002
-2.474213236,3.1448,-3.803444816,7.4692,0,233,233,502,1,854_081a8409e4d6d10923b2dedcc16a3fca405fcd602e55a20d84cac69d_circblurint.jpg,3.088264,1.21538,circularblurringint,mama13,2022-04-27_09h57.21.392,ratings,2022.1.1,Win32,59.99880002
-0.81596394,4.7756,-0.671196144,7.2527,0,234,234,328,1,468_8b69b13120daebadd8a4a3166e1419f2404395cba231307a4efa9fde_circblurint.jpg,2.031744,0.2539684,circularblurringint,mama13,2022-04-27_09h57.21.392,ratings,2022.1.1,Win32,59.99880002
-0.723838979,6.0642,-0.960731735,7.1035,0,235,235,270,1,434_ba36d91204d7e578001f6a545d7501e65d209554def5a3c8b7583825_orig.jpg,-3.523808,1.428572,original,mama13,2022-04-27_09h57.21.392,ratings,2022.1.1,Win32,59.99880002
-4,4.0839,-4,5.9348,0,236,236,312,1,459_46e25de472bb056cb470716d30937415f7344bfc4354d6eb710d8c9f_orig.jpg,0.03174604,0.0,original,mama13,2022-04-27_09h57.21.392,ratings,2022.1.1,Win32,59.99880002
4,3.5324,4,6.5799,0,237,237,36,1,82_43f4d5aec7c2e5bd495473f6708a0f2d47c9fe34e1fe9436646cb036_orig.jpg,2.022756,0.505688,original,mama13,2022-04-27_09h57.21.392,ratings,2022.1.1,Win32,59.99880002
4,3.9457,4,5.6627,0,238,238,228,1,407_578d31d32e806706dde2563213f130b90e621abfed0e47ecabd85d27_orig.jpg,3.5873,-0.444444,original,mama13,2022-04-27_09h57.21.392,ratings,2022.1.1,Win32,59.99880002
1.289749453,3.2968,1.42135654,4.6149,0,239,239,564,1,1037_e2eb929a6de79a63ce6cfe5321fcb74a203b134e4094932d90b01d99_orig.jpg,2.651956,0.0,original,mama13,2022-04-27_09h57.21.392,ratings,2022.1.1,Win32,59.99880002
-1.381874414,2.4148,-2.066231267,3.4812,0,240,240,479,1,748_e519892faa7c772a0afaf9eeff36cf0e411574027ab3d9aa4947a048_circblurext.jpg,-1.813112,3.307432,circularblurringext,mama13,2022-04-27_09h57.21.392,ratings,2022.1.1,Win32,59.99880002
-0.631714018,3.6122,-1.052856696,4.6317,0,241,241,370,1,616_05a637f5281666f53d4e2ef69351485fc21d629b37ee2006b2076eb6_circblurint.jpg,-2.380952,-0.832364,circularblurringint,mama13,2022-04-27_09h57.21.392,ratings,2022.1.1,Win32,59.99880002
-0.802803231,14.1178,-1.066017405,5.5487,0,242,242,264,1,431_ab5a1dbbe9292ac7f74e276cdabcd372e2c1f852ff34bf7cc6646ef8_orig.jpg,3.102584,0.354334,original,mama13,2022-04-27_09h57.21.392,ratings,2022.1.1,Win32,59.99880002
-0.723838979,3.8949,-1.223945909,5.0188,0,243,243,169,1,365_45a719cabbc9aa308c4fcb30d529489c6966ac4073874af84f665c61_bw.jpg,2.507936,-1.968252,blackwhite,mama13,2022-04-27_09h57.21.392,ratings,2022.1.1,Win32,59.99880002
0.236892757,2.5505,1.144981657,4.3837,0,244,244,468,1,741_2b218fb015e3da83db73cacdb52e61e0c2534c1fe255bb1c5c74d47f_orig.jpg,3.140096,0.448584,original,mama13,2022-04-27_09h57.21.392,ratings,2022.1.1,Win32,59.99880002
-2.763748828,2.0654,-3.382302137,3.3485,0,245,245,418,1,692_7d7eaf20e6de8956f0fca7500ace97a8599aa8b605a7d690cdb28724_circblurint.jpg,-2.063492,-1.26984,circularblurringint,mama13,2022-04-27_09h57.21.392,ratings,2022.1.1,Win32,59.99880002
-0.723838979,2.8504,-1.210785201,3.8665,0,246,246,451,1,716_2ab64478147184c4df720a52cf621875addc9007cb2967e4a9a88909_bw.jpg,2.428484,0.0,blackwhite,mama13,2022-04-27_09h57.21.392,ratings,2022.1.1,Win32,59.99880002
1.447677957,2.1644,1.473999375,3.1811,0,247,247,383,1,640_0ddb4981a5f5842ed5b4f7ef941be53779189df5e718b1fc5475ad80_circblurext.jpg,2.571428,-1.873016,circularblurringext,mama13,2022-04-27_09h57.21.392,ratings,2022.1.1,Win32,59.99880002
-1.210785201,1.613,-1.908302762,7.0958,0,248,248,356,1,500_3b520c7f352afa1a9f8c07e56cc0588cdc04d25ff6e7b602b5e280cb_edges.jpg,-0.8328,3.11766,edges,mama13,2022-04-27_09h57.21.392,ratings,2022.1.1,Win32,59.99880002
-3.184891506,3.113,-3.263855759,4.9136,0,249,249,372,1,620_9674719009d75dcfeaed7f15932c43e1fd1af5e25d47b8aadd61efe2_orig.jpg,-0.561364,1.142084,original,mama13,2022-04-27_09h57.21.392,ratings,2022.1.1,Win32,59.99880002
-4,3.6823,-4,5.6643,0,250,250,162,1,361_b5541309527dc3c2422f45a95ebb0ed32005e6fe10d0489a1ff1fbdc_orig.jpg,-3.987612,-0.2516452,original,mama13,2022-04-27_09h57.21.392,ratings,2022.1.1,Win32,59.99880002
0.658035435,2.7308,0.552749766,3.9484,0,251,251,520,1,860_05c4e22518a30d3d2add458a8fc6488f87b9b02dd8e385ded939f025_circblurint.jpg,1.955092,0.3097172,circularblurringint,mama13,2022-04-27_09h57.21.392,ratings,2022.1.1,Win32,59.99880002
-0.394821261,23.5495,-0.355339135,24.5772,0,252,252,599,1,1239_cee00457f4cfb76a407b12fd5ad714d440a4614c1e5467ee16caf618_circblurext.jpg,-0.03174604,0.190476,circularblurringext,mama13,2022-04-27_09h57.21.392,ratings,2022.1.1,Win32,59.99880002
-2.303124023,1.4866,-2.487373945,2.6586,0,253,253,136,1,349_8809a67686d34844c915d7700e2ea72ad1c02ae232ae0d3cc0e458d4_circblurint.jpg,-3.619048,-0.2857144,circularblurringint,mama13,2022-04-27_09h57.21.392,ratings,2022.1.1,Win32,59.99880002
-0.894928192,7.1321,-1.052856696,8.4177,0,254,254,170,1,365_45a719cabbc9aa308c4fcb30d529489c6966ac4073874af84f665c61_edges.jpg,2.507936,-1.968252,edges,mama13,2022-04-27_09h57.21.392,ratings,2022.1.1,Win32,59.99880002
-1.960945597,2.0326,-2.184677645,3.0663,0,255,255,238,1,410_9633c4ff6e8888fcfca59a60ca86e9606d3e0736500a254101bdf295_circblurint.jpg,-0.3677892,2.981028,circularblurringint,mama13,2022-04-27_09h57.21.392,ratings,2022.1.1,Win32,59.99880002
1.552963627,2.963,1.592445753,4.0319,0,256,256,278,1,440_9bf7e8609729bf888835168834da6c3ff30b75d0d4f36e2ee6918bcc_edges.jpg,-2.284164,2.710028,edges,mama13,2022-04-27_09h57.21.392,ratings,2022.1.1,Win32,59.99880002
3.35598072,2.3155,3.513909224,3.9154,0,257,257,174,1,368_6507b94d7d0199f14efd3706db30c9c44b96085f84e9cc7792e3e0ae_orig.jpg,1.959544,0.400336,original,mama13,2022-04-27_09h57.21.392,ratings,2022.1.1,Win32,59.99880002
-1.42135654,4.6491,-1.473999375,3.182,0,258,258,18,1,48_2cc936b2483ab2944c9158e163342b874ef6c1492fd8fca08c0e096e_orig.jpg,-1.264224,-0.779604,original,mama13,2022-04-27_09h57.21.392,ratings,2022.1.1,Win32,59.99880002
-2.513695362,2.2826,-3.000641585,3.6978,0,259,259,103,1,284_cdcbd54fc995081ac95c8b2c37a19cebb341f61a8eb268cee1623492_bw.jpg,-1.015872,2.095236,blackwhite,mama13,2022-04-27_09h57.21.392,ratings,2022.1.1,Win32,59.99880002
-0.10528567,2.4056,0.144767796,3.714,0,260,260,551,1,1010_06d15f44b979c086561137000ec070ba4cd479856f92840a7850b2bf_circblurext.jpg,0.189786,-0.189786,circularblurringext,mama13,2022-04-27_09h57.21.392,ratings,2022.1.1,Win32,59.99880002
0.355339135,13.6813,0.697517561,14.8686,0,261,261,568,1,1037_e2eb929a6de79a63ce6cfe5321fcb74a203b134e4094932d90b01d99_circblurint.jpg,2.651956,0.0,circularblurringint,mama13,2022-04-27_09h57.21.392,ratings,2022.1.1,Win32,59.99880002
0.329017718,6.5145,0.671196144,10.3311,0,262,262,507,1,855_66d893451dfd1e7615132071c6c8a82b02dc2b37781cd89400883b26_blur.jpg,2.69484,0.2143624,blurring,mama13,2022-04-27_09h57.21.392,ratings,2022.1.1,Win32,59.99880002
0.131607087,5.3819,1.000213862,6.6911,0,263,263,391,1,663_aaf52107fe3a86392530d88b34e86f9d2b6820714cad98d1e3c2cb67_bw.jpg,2.58766,0.0918696,blackwhite,mama13,2022-04-27_09h57.21.392,ratings,2022.1.1,Win32,59.99880002
-1.473999375,3.6669,-3.198052215,5.4231,0,264,264,406,1,686_6745b57686ad5d1bd6cf3e7ed5bc0243a154f8939e88e30321dfcfdb_circblurint.jpg,-1.523808,3.650792,circularblurringint,mama13,2022-04-27_09h57.21.392,ratings,2022.1.1,Win32,59.99880002
-3.842926942,2.0223,-4,4.1006,0,265,265,84,1,243_beddb302dcb21071d88c8d2cab07002050d36b3001ef28f89389fa56_orig.jpg,-0.3450656,-0.2070392,original,mama13,2022-04-27_09h57.21.392,ratings,2022.1.1,Win32,59.99880002
-0.355339135,5.5068,0.078964252,9.9203,0,266,266,282,1,440_dc6413e2b65369ee2587f4d85621742fe4ca87392d0a8ad2ea7d94e3_orig.jpg,-3.016216,1.69404,original,mama13,2022-04-27_09h57.21.392,ratings,2022.1.1,Win32,59.99880002
-2.934838041,1.9614,-3.527069933,3.306,0,267,267,414,1,692_7d7eaf20e6de8956f0fca7500ace97a8599aa8b605a7d690cdb28724_orig.jpg,-2.063492,-1.26984,original,mama13,2022-04-27_09h57.21.392,ratings,2022.1.1,Win32,59.99880002
-1.263428036,1.6274,-1.460838666,2.9846,0,268,268,347,1,494_5c6c3b85a2734a43c24bfe337d42ffcc82b7347227804d01c784cef4_circblurext.jpg,0.03871468,0.0,circularblurringext,mama13,2022-04-27_09h57.21.392,ratings,2022.1.1,Win32,59.99880002
2.64530245,2.2358,2.73742741,3.3195,0,269,269,178,1,368_6507b94d7d0199f14efd3706db30c9c44b96085f84e9cc7792e3e0ae_circblurint.jpg,1.959544,0.400336,circularblurringint,mama13,2022-04-27_09h57.21.392,ratings,2022.1.1,Win32,59.99880002
-3.921891194,1.9091,-4,3.7838,0,270,270,241,1,411_adfd0d5782129756321ff671d0cfb712528504c66c863df11aabd1e7_bw.jpg,-3.392332,-1.369576,blackwhite,mama13,2022-04-27_09h57.21.392,ratings,2022.1.1,Win32,59.99880002
-1.684570714,3.9105,-1.895142053,4.923,0,271,271,224,1,403_57ac47f43882fc031a6067b1a388c0b2cbe8708dcbd2ff1019932eff_edges.jpg,-3.333332,-1.396824,edges,mama13,2022-04-27_09h57.21.392,ratings,2022.1.1,Win32,59.99880002
0.631714018,2.2348,1.079178114,3.4234,0,272,272,367,1,616_05a637f5281666f53d4e2ef69351485fc21d629b37ee2006b2076eb6_bw.jpg,-2.380952,-0.832364,blackwhite,mama13,2022-04-27_09h57.21.392,ratings,2022.1.1,Win32,59.99880002
0.802803231,10.0707,-1.263428036,13.1067,0,273,273,501,1,854_081a8409e4d6d10923b2dedcc16a3fca405fcd602e55a20d84cac69d_blur.jpg,3.088264,1.21538,blurring,mama13,2022-04-27_09h57.21.392,ratings,2022.1.1,Win32,59.99880002
-1.631927879,6.6387,-2.145195519,9.7709,0,274,274,508,1,855_66d893451dfd1e7615132071c6c8a82b02dc2b37781cd89400883b26_circblurint.jpg,2.69484,0.2143624,circularblurringint,mama13,2022-04-27_09h57.21.392,ratings,2022.1.1,Win32,59.99880002
-0.460624805,5.2025,-0.473785513,6.8914,0,275,275,158,1,358_157f8ac929713531a15b1ecf115e7b659cb90e83d675251e368d165f_edges.jpg,-3.777776,-0.571428,edges,mama13,2022-04-27_09h57.21.392,ratings,2022.1.1,Win32,59.99880002
-2.803230954,2.6654,-3.369141428,3.7342,0,276,276,436,1,694_f80f33613b268beffd6c044537cf3b44a84683d6e889bc37b8e9c34b_circblurint.jpg,-0.3785616,3.34728,circularblurringint,mama13,2022-04-27_09h57.21.392,ratings,2022.1.1,Win32,59.99880002
-2.145195519,4.0515,-3.527069933,5.8342,0,277,277,404,1,686_6745b57686ad5d1bd6cf3e7ed5bc0243a154f8939e88e30321dfcfdb_edges.jpg,-1.523808,3.650792,edges,mama13,2022-04-27_09h57.21.392,ratings,2022.1.1,Win32,59.99880002
1.342392288,2.2475,2.210999062,3.4021,0,278,278,120,1,347_27f0e47c2722605b950ccf9fa900f78271e4c3c874064ab5dacac160_orig.jpg,1.838948,0.3097172,original,mama13,2022-04-27_09h57.21.392,ratings,2022.1.1,Win32,59.99880002
0.921249609,5.2388,0.894928192,3.5762,0,279,279,326,1,468_8b69b13120daebadd8a4a3166e1419f2404395cba231307a4efa9fde_edges.jpg,2.031744,0.2539684,edges,mama13,2022-04-27_09h57.21.392,ratings,2022.1.1,Win32,59.99880002
0.052642835,4.6628,0.71067827,8.1695,0,280,280,394,1,663_aaf52107fe3a86392530d88b34e86f9d2b6820714cad98d1e3c2cb67_circblurint.jpg,2.58766,0.0918696,circularblurringint,mama13,2022-04-27_09h57.21.392,ratings,2022.1.1,Win32,59.99880002
-1.737213549,5.5586,-1.289749453,8.1196,0,281,281,261,1,416_8a1f874e0057d67a4e6955865ba88b2d8ce2c8b4469589307687a723_blur.jpg,-1.753336,3.088264,blurring,mama13,2022-04-27_09h57.21.392,ratings,2022.1.1,Win32,59.99880002
0.447464096,5.7189,0.013160709,8.33,0,282,282,4,1,13_771f4fcf0a212d25d6a78565e7f34cc5ddd823e7afbdc77ef063326e_circblurint.jpg,2.190476,0.0,circularblurringint,mama13,2022-04-27_09h57.21.392,ratings,2022.1.1,Win32,59.99880002
-1.329231579,3.6686,-2.250481188,5.3779,0,283,283,94,1,258_d26019382777d2159a974a7654923e71598135ce2cd710cea1f92865_circblurint.jpg,3.497684,-0.61104,circularblurringint,mama13,2022-04-27_09h57.21.392,ratings,2022.1.1,Win32,59.99880002
-2.73742741,4.4664,-3.303337885,7.9777,0,284,284,598,1,1239_cee00457f4cfb76a407b12fd5ad714d440a4614c1e5467ee16caf618_circblurint.jpg,-0.03174604,0.190476,circularblurringint,mama13,2022-04-27_09h57.21.392,ratings,2022.1.1,Win32,59.99880002
-0.342178426,2.6526,-0.263214174,3.8361,0,285,285,68,1,172_c641c6c56ca6b594b773084e1363c852abdb65f988d7ff802ee503f2_edges.jpg,0.379572,0.01725328,edges,mama13,2022-04-27_09h57.21.392,ratings,2022.1.1,Win32,59.99880002
-2.303124023,2.1286,-2.526856071,4.6506,0,286,286,247,1,414_0187bdf7007109b487865b6a9d388997a6817acf052a6a7cdd5b39d9_bw.jpg,-2.786708,-1.133056,blackwhite,mama13,2022-04-27_09h57.21.392,ratings,2022.1.1,Win32,59.99880002
0.644874727,2.8461,0.908088901,4.1816,0,287,287,430,1,694_7a14b8ab7c564dcb0f628c4de7f6cb54e4c5f6601f774bf167641c37_circblurint.jpg,1.819588,0.116144,circularblurringint,mama13,2022-04-27_09h57.21.392,ratings,2022.1.1,Win32,59.99880002
-2.658463158,5.3646,-3.158570089,6.4651,0,288,288,346,1,494_5c6c3b85a2734a43c24bfe337d42ffcc82b7347227804d01c784cef4_circblurint.jpg,0.03871468,0.0,circularblurringint,mama13,2022-04-27_09h57.21.392,ratings,2022.1.1,Win32,59.99880002
0.658035435,1.8823,1.329231579,3.3637,0,289,289,287,1,440_dc6413e2b65369ee2587f4d85621742fe4ca87392d0a8ad2ea7d94e3_circblurext.jpg,-3.016216,1.69404,circularblurringext,mama13,2022-04-27_09h57.21.392,ratings,2022.1.1,Win32,59.99880002
3.277016467,3.5335,3.619194894,5.4662,0,290,290,150,1,355_00a76f54934d36566dd0e7b091b8aa6a56d8e6b32d349aa578a10b45_orig.jpg,2.910052,0.3439152,original,mama13,2022-04-27_09h57.21.392,ratings,2022.1.1,Win32,59.99880002
4,3.9492,4,5.7979,0,291,291,408,1,687_e3b018945792a574962235c88c553b7c318c75eec2596478e8a7b877_orig.jpg,3.63918,-0.42586,original,mama13,2022-04-27_09h57.21.392,ratings,2022.1.1,Win32,59.99880002
2.921677332,4.9471,2.776909537,6.4818,0,292,292,341,1,492_a1a4d288d3bc486c83c3b6a835c42891989f5ba781633932298a7676_circblurext.jpg,3.406892,-0.44522,circularblurringext,mama13,2022-04-27_09h57.21.392,ratings,2022.1.1,Win32,59.99880002
-4,2.4626,-4,4.4456,0,293,293,574,1,1039_d64da8480fc6e94dcdc513237d600570ae0b9fe48795ac6a8b2d29a7_circblurint.jpg,-2.507936,-1.142856,circularblurringint,mama13,2022-04-27_09h57.21.392,ratings,2022.1.1,Win32,59.99880002
-1.658249297,6.0132,-1.605606462,7.6159,0,294,294,220,1,396_208259ea431d47bb7f3946213eb099834eb119756ce304ad473d4d9f_circblurint.jpg,2.857144,-0.3809524,circularblurringint,mama13,2022-04-27_09h57.21.392,ratings,2022.1.1,Win32,59.99880002
0.750160396,3.3754,1.289749453,4.7219,0,295,295,522,1,877_cab3efed0c9ff4552037df6c1ea4ea9713f915c94592a14dbf2799da_orig.jpg,3.174604,0.3174604,original,mama13,2022-04-27_09h57.21.392,ratings,2022.1.1,Win32,59.99880002
-3.540230641,6.883,-3.632355602,8.0499,0,296,296,334,1,482_a1cd28915c5044c018195ab0fff10dcc95e385246b045a7cd4463ff7_circblurint.jpg,-3.361852,-1.555612,circularblurringint,mama13,2022-04-27_09h57.21.392,ratings,2022.1.1,Win32,59.99880002
1.710892132,11.0591,3.750801981,9.3388,0,297,297,8,1,28_6318543b74eeb646a1735477ebc023fdc9ac3849bc0db1957c272a26_edges.jpg,2.811244,-0.74584,edges,mama13,2022-04-27_09h57.21.392,ratings,2022.1.1,Win32,59.99880002
3.171730798,2.3089,3.092766545,4.1249,0,298,298,53,1,112_b6a4ce721c2e42943d7d8b168751d74cd2f372b1cd4fed5a4404faec_circblurext.jpg,2.107036,0.505688,circularblurringext,mama13,2022-04-27_09h57.21.392,ratings,2022.1.1,Win32,59.99880002
3.55339135,1.8663,3.434944972,2.9516,0,299,299,38,1,82_43f4d5aec7c2e5bd495473f6708a0f2d47c9fe34e1fe9436646cb036_edges.jpg,2.022756,0.505688,edges,mama13,2022-04-27_09h57.21.392,ratings,2022.1.1,Win32,59.99880002
-3.053284419,1.9798,-3.44810568,3.0448,0,300,300,532,1,915_dc9fd40a3b5d64a180833a7bac86e7556c24f681f473fe255e41f936_circblurint.jpg,-3.09294,-0.918696,circularblurringint,mama13,2022-04-27_09h57.21.392,ratings,2022.1.1,Win32,59.99880002
-0.736999687,2.6991,-1.026535279,4.0488,0,301,301,542,1,1005_b980c0747d20935bc63cc27a9e05ce2ff5bae98f859872ec48edd7f5_edges.jpg,3.428572,-0.476192,edges,mama13,2022-04-27_09h57.21.392,ratings,2022.1.1,Win32,59.99880002
1.263428036,3.5931,0.894928192,5.279,0,302,302,24,1,59_8568373b727f29d67ba6ce4c360dd918c8b08b13495fca56bdda5e82_orig.jpg,2.064896,0.505688,original,mama13,2022-04-27_09h57.21.392,ratings,2022.1.1,Win32,59.99880002
2.250481188,7.3175,2.250481188,5.9697,0,303,303,525,1,877_cab3efed0c9ff4552037df6c1ea4ea9713f915c94592a14dbf2799da_blur.jpg,3.174604,0.3174604,blurring,mama13,2022-04-27_09h57.21.392,ratings,2022.1.1,Win32,59.99880002
-0.526428348,11.9684,-1.513481501,15.9846,0,304,304,411,1,687_e3b018945792a574962235c88c553b7c318c75eec2596478e8a7b877_blur.jpg,3.63918,-0.42586,blurring,mama13,2022-04-27_09h57.21.392,ratings,2022.1.1,Win32,59.99880002
-2.303124023,5.7092,-2.355766858,3.912,0,305,305,591,1,1228_557412d34d6a70b7c5d222e030aa485b351a4574e8ba1a3112d1d13d_blur.jpg,2.137444,0.703464,blurring,mama13,2022-04-27_09h57.21.392,ratings,2022.1.1,Win32,59.99880002
3.316498593,3.2356,4,4.9349,0,306,306,203,1,380_34772591c787182a37724027eac6948ebc9d4064f6a601d23b923b8e_circblurext.jpg,2.222224,-0.063492,circularblurringext,mama13,2022-04-27_09h57.21.392,ratings,2022.1.1,Win32,59.99880002
-0.500106931,3.7471,-0.763321105,5.8157,0,307,307,579,1,1061_665178b9cb0bc869cc2e2b68def4838db04e66f9531098fb75875a09_blur.jpg,0.3492064,-0.3174604,blurring,mama13,2022-04-27_09h57.21.392,ratings,2022.1.1,Win32,59.99880002
-0.381660552,12.049,-1.223945909,9.2948,0,308,308,186,1,369_c99797771115d7627d4abe3415f814497288f91a7be1a04c17c776b9_orig.jpg,3.619824,-0.174216,original,mama13,2022-04-27_09h57.21.392,ratings,2022.1.1,Win32,59.99880002
-1.855659927,4.5811,-1.789856384,6.2715,0,309,309,143,1,353_44e285740cb41818482ac93fc5fbd72c18029444a1d7506c9fc053e7_circblurext.jpg,-3.232676,-0.87108,circularblurringext,mama13,2022-04-27_09h57.21.392,ratings,2022.1.1,Win32,59.99880002
0.289535591,6.9607,0.026321417,8.2766,0,310,310,439,1,700_59cb565f134f1afd066d7b6d936c6511b7cb76de0e9cbb5ce15124ad_bw.jpg,0.0,0.0,blackwhite,mama13,2022-04-27_09h57.21.392,ratings,2022.1.1,Win32,59.99880002
-1.381874414,2.7115,-1.144981657,3.8933,0,311,311,260,1,416_8a1f874e0057d67a4e6955865ba88b2d8ce2c8b4469589307687a723_edges.jpg,-1.753336,3.088264,edges,mama13,2022-04-27_09h57.21.392,ratings,2022.1.1,Win32,59.99880002
1.671410005,1.9527,1.539802918,4.1625,0,312,312,578,1,1061_665178b9cb0bc869cc2e2b68def4838db04e66f9531098fb75875a09_edges.jpg,0.3492064,-0.3174604,edges,mama13,2022-04-27_09h57.21.392,ratings,2022.1.1,Win32,59.99880002
2.092552684,2.3695,1.737213549,4.0589,0,313,313,50,1,112_b6a4ce721c2e42943d7d8b168751d74cd2f372b1cd4fed5a4404faec_edges.jpg,2.107036,0.505688,edges,mama13,2022-04-27_09h57.21.392,ratings,2022.1.1,Win32,59.99880002
1.31607087,5.92,1.645088588,7.9817,0,314,314,463,1,736_bb85db1bcda8eb34299aa5791ac65a0a7c343266eb2d6e6e328ec0e1_bw.jpg,3.650792,-0.03174604,blackwhite,mama13,2022-04-27_09h57.21.392,ratings,2022.1.1,Win32,59.99880002
-4,3.1861,-4,6.0502,0,315,315,498,1,854_081a8409e4d6d10923b2dedcc16a3fca405fcd602e55a20d84cac69d_orig.jpg,3.088264,1.21538,original,mama13,2022-04-27_09h57.21.392,ratings,2022.1.1,Win32,59.99880002
-0.934410318,3.7706,-1.000213862,4.8826,0,316,316,20,1,48_2cc936b2483ab2944c9158e163342b874ef6c1492fd8fca08c0e096e_edges.jpg,-1.264224,-0.779604,edges,mama13,2022-04-27_09h57.21.392,ratings,2022.1.1,Win32,59.99880002
-2.276802606,1.2909,-2.13203481,2.4727,0,317,317,493,1,824_b1d91cc824ce0d3d383d3147da88d3d6dbaf6be918bab79e3ec8f501_bw.jpg,-3.645176,-1.432784,blackwhite,mama13,2022-04-27_09h57.21.392,ratings,2022.1.1,Win32,59.99880002
-1.144981657,4.259,-1.302910162,5.7865,0,318,318,461,1,720_483c541c48959a597fcf44320941afaf8b7695105f90d65b5f6b30f2_circblurext.jpg,2.158732,-0.2539684,circularblurringext,mama13,2022-04-27_09h57.21.392,ratings,2022.1.1,Win32,59.99880002
0.276374883,3.6559,0.381660552,4.7839,0,319,319,171,1,365_45a719cabbc9aa308c4fcb30d529489c6966ac4073874af84f665c61_blur.jpg,2.507936,-1.968252,blurring,mama13,2022-04-27_09h57.21.392,ratings,2022.1.1,Win32,59.99880002
-2.592659615,3.0852,-3.079605837,4.0047,0,320,320,376,1,620_9674719009d75dcfeaed7f15932c43e1fd1af5e25d47b8aadd61efe2_circblurint.jpg,-0.561364,1.142084,circularblurringint,mama13,2022-04-27_09h57.21.392,ratings,2022.1.1,Win32,59.99880002
-1.052856696,4.6487,-1.250267327,5.7151,0,321,321,488,1,818_877aae033c31e3bbca4486321a5307f87cf53c576c546462d3daf194_edges.jpg,-1.277584,0.619436,edges,mama13,2022-04-27_09h57.21.392,ratings,2022.1.1,Win32,59.99880002
-1.092338822,6.1791,-1.342392288,7.2153,0,322,322,361,1,508_a7a9519cdc7aad6844030f4e6cd96cffd1b9c49b71e20ea52789bda2_bw.jpg,-3.000388,-1.29694,blackwhite,mama13,2022-04-27_09h57.21.392,ratings,2022.1.1,Win32,59.99880002
0.10528567,8.9626,0.078964252,7.5779,0,323,323,450,1,716_2ab64478147184c4df720a52cf621875addc9007cb2967e4a9a88909_orig.jpg,2.428484,0.0,original,mama13,2022-04-27_09h57.21.392,ratings,2022.1.1,Win32,59.99880002
0.6053926,4.4142,1.000213862,7.3978,0,324,324,115,1,332_4d584229bdae2e1782f77f0e953e528f13c3dfa79b4b94736c0310fa_bw.jpg,3.157348,0.483092,blackwhite,mama13,2022-04-27_09h57.21.392,ratings,2022.1.1,Win32,59.99880002
2.23732048,3.0232,2.500534654,4.6609,0,325,325,340,1,492_a1a4d288d3bc486c83c3b6a835c42891989f5ba781633932298a7676_circblurint.jpg,3.406892,-0.44522,circularblurringint,mama13,2022-04-27_09h57.21.392,ratings,2022.1.1,Win32,59.99880002
-1.395035123,2.0672,-1.487160084,3.3672,0,326,326,374,1,620_9674719009d75dcfeaed7f15932c43e1fd1af5e25d47b8aadd61efe2_edges.jpg,-0.561364,1.142084,edges,mama13,2022-04-27_09h57.21.392,ratings,2022.1.1,Win32,59.99880002
1.289749453,3.5315,1.513481501,4.8527,0,327,327,548,1,1010_06d15f44b979c086561137000ec070ba4cd479856f92840a7850b2bf_edges.jpg,0.189786,-0.189786,edges,mama13,2022-04-27_09h57.21.392,ratings,2022.1.1,Win32,59.99880002
1.592445753,3.6457,2.118874101,5.6065,0,328,328,304,1,453_54f106fd1d4b65fa4aa347407127fc30d49f791e81aee3a0bbe44489_circblurint.jpg,2.222224,0.0,circularblurringint,mama13,2022-04-27_09h57.21.392,ratings,2022.1.1,Win32,59.99880002
-1.987267014,2.6807,-2.289963315,3.682,0,329,329,259,1,416_8a1f874e0057d67a4e6955865ba88b2d8ce2c8b4469589307687a723_bw.jpg,-1.753336,3.088264,blackwhite,mama13,2022-04-27_09h57.21.392,ratings,2022.1.1,Win32,59.99880002
1.092338822,4.2645,0.973892444,7.1488,0,330,330,541,1,1005_b980c0747d20935bc63cc27a9e05ce2ff5bae98f859872ec48edd7f5_bw.jpg,3.428572,-0.476192,blackwhite,mama13,2022-04-27_09h57.21.392,ratings,2022.1.1,Win32,59.99880002
0.842285357,2.2969,0.987053153,3.4984,0,331,331,149,1,354_e46c3ec6fb00773f64f2bcd212385f253c389808fe724b7cf8611051_circblurext.jpg,2.018292,0.0,circularblurringext,mama13,2022-04-27_09h57.21.392,ratings,2022.1.1,Win32,59.99880002
0.579071183,6.1789,0.579071183,9.2145,0,332,332,15,1,39_2fafccaa4dc69045a05845f59c6b3cd2edcf7e0e0c108b24e553afe0_blur.jpg,2.022756,0.463548,blurring,mama13,2022-04-27_09h57.21.392,ratings,2022.1.1,Win32,59.99880002
0.644874727,2.1992,0.394821261,3.3652,0,333,333,146,1,354_e46c3ec6fb00773f64f2bcd212385f253c389808fe724b7cf8611051_edges.jpg,2.018292,0.0,edges,mama13,2022-04-27_09h57.21.392,ratings,2022.1.1,Win32,59.99880002
-3.474427098,2.5976,-3.408623554,3.7631,0,334,334,310,1,455_34a7d8167619d110206c369e3f7dce8a3f99db763a9d8e2b956501d3_circblurint.jpg,-2.526412,-0.3827896,circularblurringint,mama13,2022-04-27_09h57.21.392,ratings,2022.1.1,Win32,59.99880002
0.539589057,3.3687,1.684570714,5.3477,0,335,335,590,1,1228_557412d34d6a70b7c5d222e030aa485b351a4574e8ba1a3112d1d13d_edges.jpg,2.137444,0.703464,edges,mama13,2022-04-27_09h57.21.392,ratings,2022.1.1,Win32,59.99880002
1.513481501,4.746,1.671410005,11.6129,0,336,336,108,1,293_3dfdfafc0c6a54b2da7453750ac281f7718c0b3337b0a74c4563d6bd_orig.jpg,-2.574524,2.632596,original,mama13,2022-04-27_09h57.21.392,ratings,2022.1.1,Win32,59.99880002
-2.73742741,2.3801,-3.342820011,3.5084,0,337,337,389,1,646_577760d718dab44c6f04d77408c5644a120065ce07a9503957d0850a_circblurext.jpg,-2.690668,2.61324,circularblurringext,mama13,2022-04-27_09h57.21.392,ratings,2022.1.1,Win32,59.99880002
-0.829124648,9.0614,-0.723838979,11.5296,0,338,338,454,1,716_2ab64478147184c4df720a52cf621875addc9007cb2967e4a9a88909_circblurint.jpg,2.428484,0.0,circularblurringint,mama13,2022-04-27_09h57.21.392,ratings,2022.1.1,Win32,59.99880002
-2.724266702,3.4802,-2.250481188,6.1486,0,339,339,193,1,379_eeaa6d9bf5a4ef205dc48bc505cf3a7f24ea86e99af9b371e03602a7_bw.jpg,-0.3926308,2.88936,blackwhite,mama13,2022-04-27_09h57.21.392,ratings,2022.1.1,Win32,59.99880002
0.223732048,4.1146,0.565910474,5.7315,0,340,340,168,1,365_45a719cabbc9aa308c4fcb30d529489c6966ac4073874af84f665c61_orig.jpg,2.507936,-1.968252,original,mama13,2022-04-27_09h57.21.392,ratings,2022.1.1,Win32,59.99880002
-1.052856696,4.1968,-1.184463783,5.2147,0,341,341,237,1,410_9633c4ff6e8888fcfca59a60ca86e9606d3e0736500a254101bdf295_blur.jpg,-0.3677892,2.981028,blurring,mama13,2022-04-27_09h57.21.392,ratings,2022.1.1,Win32,59.99880002
0.750160396,3.6555,0.763321105,4.5715,0,342,342,176,1,368_6507b94d7d0199f14efd3706db30c9c44b96085f84e9cc7792e3e0ae_edges.jpg,1.959544,0.400336,edges,mama13,2022-04-27_09h57.21.392,ratings,2022.1.1,Win32,59.99880002
-2.118874101,1.9042,-2.171516936,2.7738,0,343,343,537,1,986_a77edb21e78bc3a6aa7406517824596b3496ad6c657b6befb84cf370_blur.jpg,-3.906316,-0.60496,blurring,mama13,2022-04-27_09h57.21.392,ratings,2022.1.1,Win32,59.99880002
-1.026535279,4.0703,-1.144981657,5.5935,0,344,344,199,1,380_34772591c787182a37724027eac6948ebc9d4064f6a601d23b923b8e_bw.jpg,2.222224,-0.063492,blackwhite,mama13,2022-04-27_09h57.21.392,ratings,2022.1.1,Win32,59.99880002
-2.658463158,2.2008,-3.408623554,4.2701,0,345,345,400,1,683_a004ad18331da968da5debdd15e1447dd7748750af0bc6c57b844200_circblurint.jpg,-2.91956,2.466524,circularblurringint,mama13,2022-04-27_09h57.21.392,ratings,2022.1.1,Win32,59.99880002
-4,2.8866,-4,4.5562,0,346,346,307,1,455_34a7d8167619d110206c369e3f7dce8a3f99db763a9d8e2b956501d3_bw.jpg,-2.526412,-0.3827896,blackwhite,mama13,2022-04-27_09h57.21.392,ratings,2022.1.1,Win32,59.99880002
3.434944972,4.8385,3.35598072,5.9498,0,347,347,125,1,347_27f0e47c2722605b950ccf9fa900f78271e4c3c874064ab5dacac160_circblurext.jpg,1.838948,0.3097172,circularblurringext,mama13,2022-04-27_09h57.21.392,ratings,2022.1.1,Win32,59.99880002
0.565910474,2.6069,0.552749766,3.752,0,348,348,265,1,431_ab5a1dbbe9292ac7f74e276cdabcd372e2c1f852ff34bf7cc6646ef8_bw.jpg,3.102584,0.354334,blackwhite,mama13,2022-04-27_09h57.21.392,ratings,2022.1.1,Win32,59.99880002
1.342392288,2.9708,1.395035123,4.3694,0,349,349,353,1,498_305b74cdc4784d9d25e72724302e5402def70177ea31ae7e25fab66b_circblurext.jpg,3.04762,-0.444444,circularblurringext,mama13,2022-04-27_09h57.21.392,ratings,2022.1.1,Win32,59.99880002
-3.645516311,3.0843,-4,4.5509,0,350,350,319,1,460_e06b3af7ff2f2bfb5f9b6e3d5dc25b9aaa40b84823fac8fd934621bd_bw.jpg,-3.430992,-1.607468,blackwhite,mama13,2022-04-27_09h57.21.392,ratings,2022.1.1,Win32,59.99880002
1.803017092,2.2704,2.184677645,3.369,0,351,351,72,1,236_f645730e1eb06155418c9a571329cc7fa320654fcaaedf1048b5cc11_orig.jpg,2.253968,0.0,original,mama13,2022-04-27_09h57.21.392,ratings,2022.1.1,Win32,59.99880002
-1.368713705,1.8445,-1.631927879,3.2022,0,352,352,23,1,48_2cc936b2483ab2944c9158e163342b874ef6c1492fd8fca08c0e096e_circblurext.jpg,-1.264224,-0.779604,circularblurringext,mama13,2022-04-27_09h57.21.392,ratings,2022.1.1,Win32,59.99880002
-3.066445128,2.525,-3.513909224,4.2857,0,353,353,130,1,349_18d92ef5c21ca70a3dd237aad251594e1688bbe01d8cff37b89c46b8_circblurint.jpg,-2.74874,-1.258228,circularblurringint,mama13,2022-04-27_09h57.21.392,ratings,2022.1.1,Win32,59.99880002
4,3.6187,4,6.1625,0,354,354,121,1,347_27f0e47c2722605b950ccf9fa900f78271e4c3c874064ab5dacac160_bw.jpg,1.838948,0.3097172,blackwhite,mama13,2022-04-27_09h57.21.392,ratings,2022.1.1,Win32,59.99880002
-2.184677645,2.4763,-2.54001678,3.4562,0,355,355,204,1,381_5935a9f9796adce2f1539af6c75bcdc0c80d847a2ce9b77cf59b7672_orig.jpg,-1.327432,-0.442476,original,mama13,2022-04-27_09h57.21.392,ratings,2022.1.1,Win32,59.99880002
0.789642522,6.935,0.684356853,8.2362,0,356,356,12,1,39_2fafccaa4dc69045a05845f59c6b3cd2edcf7e0e0c108b24e553afe0_orig.jpg,2.022756,0.463548,original,mama13,2022-04-27_09h57.21.392,ratings,2022.1.1,Win32,59.99880002
0.3026963,3.1544,0.71067827,4.4159,0,357,357,449,1,709_69c01dcde028a2a1a913f1a2a5026ae1748484f75c89217a040c6791_circblurext.jpg,1.432444,-0.01935732,circularblurringext,mama13,2022-04-27_09h57.21.392,ratings,2022.1.1,Win32,59.99880002
2.224159771,5.6997,2.84271308,8.4186,0,358,358,122,1,347_27f0e47c2722605b950ccf9fa900f78271e4c3c874064ab5dacac160_edges.jpg,1.838948,0.3097172,edges,mama13,2022-04-27_09h57.21.392,ratings,2022.1.1,Win32,59.99880002
-0.829124648,5.8652,-1.763534966,4.2151,0,359,359,344,1,494_5c6c3b85a2734a43c24bfe337d42ffcc82b7347227804d01c784cef4_edges.jpg,0.03871468,0.0,edges,mama13,2022-04-27_09h57.21.392,ratings,2022.1.1,Win32,59.99880002
-1.395035123,3.5737,-1.579285044,6.7117,0,360,360,587,1,1225_59c67a821456f2cce3e5acf66d7f00076bd02caffc984c1eb0df794e_circblurext.jpg,-0.444444,3.809524,circularblurringext,mama13,2022-04-27_09h57.21.392,ratings,2022.1.1,Win32,59.99880002
-2.355766858,3.6965,-2.395248984,4.6477,0,361,361,437,1,694_f80f33613b268beffd6c044537cf3b44a84683d6e889bc37b8e9c34b_circblurext.jpg,-0.3785616,3.34728,circularblurringext,mama13,2022-04-27_09h57.21.392,ratings,2022.1.1,Win32,59.99880002
-1.42135654,2.2649,-2.000427723,4.1162,0,362,362,343,1,494_5c6c3b85a2734a43c24bfe337d42ffcc82b7347227804d01c784cef4_bw.jpg,0.03871468,0.0,blackwhite,mama13,2022-04-27_09h57.21.392,ratings,2022.1.1,Win32,59.99880002
1.408195831,19.0484,1.855659927,17.7313,0,363,363,29,1,59_8568373b727f29d67ba6ce4c360dd918c8b08b13495fca56bdda5e82_circblurext.jpg,2.064896,0.505688,circularblurringext,mama13,2022-04-27_09h57.21.392,ratings,2022.1.1,Win32,59.99880002
1.197624492,3.5116,1.171303075,4.4987,0,364,364,75,1,236_f645730e1eb06155418c9a571329cc7fa320654fcaaedf1048b5cc11_blur.jpg,2.253968,0.0,blurring,mama13,2022-04-27_09h57.21.392,ratings,2022.1.1,Win32,59.99880002
-1.750374258,2.2598,-1.960945597,3.4948,0,365,365,286,1,440_dc6413e2b65369ee2587f4d85621742fe4ca87392d0a8ad2ea7d94e3_circblurint.jpg,-3.016216,1.69404,circularblurringint,mama13,2022-04-27_09h57.21.392,ratings,2022.1.1,Win32,59.99880002
0.723838979,6.7023,0.460624805,7.7994,0,366,366,98,1,267_792043debad81ce271cec5b3c3bd9d264efc13f362bec9c7a3f72fe7_edges.jpg,1.980616,0.2107036,edges,mama13,2022-04-27_09h57.21.392,ratings,2022.1.1,Win32,59.99880002
1.039695988,8.403,0.736999687,6.0562,0,367,367,480,1,759_95e1c46ed9a337414d5c8eada8fa8b9632e18751f5ce6ed587806e91_orig.jpg,2.126984,0.0,original,mama13,2022-04-27_09h57.21.392,ratings,2022.1.1,Win32,59.99880002
1.302910162,6.1108,1.592445753,7.3113,0,368,368,219,1,396_208259ea431d47bb7f3946213eb099834eb119756ce304ad473d4d9f_blur.jpg,2.857144,-0.3809524,blurring,mama13,2022-04-27_09h57.21.392,ratings,2022.1.1,Win32,59.99880002
-1.289749453,5.7111,-1.250267327,7.9776,0,369,369,187,1,369_c99797771115d7627d4abe3415f814497288f91a7be1a04c17c776b9_bw.jpg,3.619824,-0.174216,blackwhite,mama13,2022-04-27_09h57.21.392,ratings,2022.1.1,Win32,59.99880002
-2.816391663,1.8884,-3.382302137,3.2166,0,370,370,385,1,646_577760d718dab44c6f04d77408c5644a120065ce07a9503957d0850a_bw.jpg,-2.690668,2.61324,blackwhite,mama13,2022-04-27_09h57.21.392,ratings,2022.1.1,Win32,59.99880002
-2.869034498,2.188,-2.776909537,3.2364,0,371,371,309,1,455_34a7d8167619d110206c369e3f7dce8a3f99db763a9d8e2b956501d3_blur.jpg,-2.526412,-0.3827896,blurring,mama13,2022-04-27_09h57.21.392,ratings,2022.1.1,Win32,59.99880002
0.565910474,2.2713,0.579071183,3.6538,0,372,372,81,1,242_85283f6935a89812ab229dcad9ba184529c9242ac3106d768ecf3ab3_blur.jpg,2.14918,-0.2949852,blurring,mama13,2022-04-27_09h57.21.392,ratings,2022.1.1,Win32,59.99880002
-2.553177489,11.559,-2.184677645,9.023,0,373,373,320,1,460_e06b3af7ff2f2bfb5f9b6e3d5dc25b9aaa40b84823fac8fd934621bd_edges.jpg,-3.430992,-1.607468,edges,mama13,2022-04-27_09h57.21.392,ratings,2022.1.1,Win32,59.99880002
-0.289535591,7.2045,-0.197410631,8.5588,0,374,374,254,1,416_5eb54976bb41ce2a6d129ef985f792e716f010fb9b69b15f50f5d2db_edges.jpg,-2.58766,2.602972,edges,mama13,2022-04-27_09h57.21.392,ratings,2022.1.1,Win32,59.99880002
-2.579498906,1.4065,-3.105927254,2.522,0,375,375,132,1,349_8809a67686d34844c915d7700e2ea72ad1c02ae232ae0d3cc0e458d4_orig.jpg,-3.619048,-0.2857144,original,mama13,2022-04-27_09h57.21.392,ratings,2022.1.1,Win32,59.99880002
-1.31607087,1.7005,-1.289749453,2.6838,0,376,376,283,1,440_dc6413e2b65369ee2587f4d85621742fe4ca87392d0a8ad2ea7d94e3_bw.jpg,-3.016216,1.69404,blackwhite,mama13,2022-04-27_09h57.21.392,ratings,2022.1.1,Win32,59.99880002
-3.079605837,1.9649,-2.829552371,3.2652,0,377,377,321,1,460_e06b3af7ff2f2bfb5f9b6e3d5dc25b9aaa40b84823fac8fd934621bd_blur.jpg,-3.430992,-1.607468,blurring,mama13,2022-04-27_09h57.21.392,ratings,2022.1.1,Win32,59.99880002
-2.934838041,2.8294,-3.079605837,4.1133,0,378,378,424,1,692_e3e3bf88684fbbcdb9849a4147f9e2fcd39b0f083554a829aca4e9fa_circblurint.jpg,-0.44522,3.135888,circularblurringint,mama13,2022-04-27_09h57.21.392,ratings,2022.1.1,Win32,59.99880002
-1.381874414,2.1642,0.092124961,5.6817,0,379,379,252,1,416_5eb54976bb41ce2a6d129ef985f792e716f010fb9b69b15f50f5d2db_orig.jpg,-2.58766,2.602972,original,mama13,2022-04-27_09h57.21.392,ratings,2022.1.1,Win32,59.99880002
1.263428036,4.9137,1.31607087,3.8634,0,380,380,516,1,860_05c4e22518a30d3d2add458a8fc6488f87b9b02dd8e385ded939f025_orig.jpg,1.955092,0.3097172,original,mama13,2022-04-27_09h57.21.392,ratings,2022.1.1,Win32,59.99880002
-0.500106931,4.7313,-0.460624805,5.731,0,381,381,140,1,353_44e285740cb41818482ac93fc5fbd72c18029444a1d7506c9fc053e7_edges.jpg,-3.232676,-0.87108,edges,mama13,2022-04-27_09h57.21.392,ratings,2022.1.1,Win32,59.99880002
-2.684784576,4.9322,-2.94799875,7.7316,0,382,382,306,1,455_34a7d8167619d110206c369e3f7dce8a3f99db763a9d8e2b956501d3_orig.jpg,-2.526412,-0.3827896,original,mama13,2022-04-27_09h57.21.392,ratings,2022.1.1,Win32,59.99880002
-1.250267327,1.9951,-1.250267327,2.9118,0,383,383,212,1,394_8e3a0cb945144d53bd1ace04b6256237ed9dcbbd9cb83f8a4886b0e6_edges.jpg,-2.593884,2.651956,edges,mama13,2022-04-27_09h57.21.392,ratings,2022.1.1,Win32,59.99880002
1.697731423,4.9936,1.697731423,6.212,0,384,384,17,1,39_2fafccaa4dc69045a05845f59c6b3cd2edcf7e0e0c108b24e553afe0_circblurext.jpg,2.022756,0.463548,circularblurringext,mama13,2022-04-27_09h57.21.392,ratings,2022.1.1,Win32,59.99880002
0.750160396,9.4651,1.000213862,8.0478,0,385,385,442,1,700_59cb565f134f1afd066d7b6d936c6511b7cb76de0e9cbb5ce15124ad_circblurint.jpg,0.0,0.0,circularblurringint,mama13,2022-04-27_09h57.21.392,ratings,2022.1.1,Win32,59.99880002
-0.618553309,3.1319,-1.01337457,4.1487,0,386,386,210,1,394_8e3a0cb945144d53bd1ace04b6256237ed9dcbbd9cb83f8a4886b0e6_orig.jpg,-2.593884,2.651956,original,mama13,2022-04-27_09h57.21.392,ratings,2022.1.1,Win32,59.99880002
-3.026963002,6.5823,-2.750588119,7.9492,0,387,387,553,1,1014_a5c212ca979d482cf94c2db7697aba75620391a64b030ab7ad2bbecf_bw.jpg,-3.174604,-1.374372,blackwhite,mama13,2022-04-27_09h57.21.392,ratings,2022.1.1,Win32,59.99880002
-1.671410005,1.8316,-2.250481188,2.9315,0,388,388,262,1,416_8a1f874e0057d67a4e6955865ba88b2d8ce2c8b4469589307687a723_circblurint.jpg,-1.753336,3.088264,circularblurringint,mama13,2022-04-27_09h57.21.392,ratings,2022.1.1,Win32,59.99880002
1.987267014,2.8992,2.43473111,4.2159,0,389,389,281,1,440_9bf7e8609729bf888835168834da6c3ff30b75d0d4f36e2ee6918bcc_circblurext.jpg,-2.284164,2.710028,circularblurringext,mama13,2022-04-27_09h57.21.392,ratings,2022.1.1,Win32,59.99880002
0.750160396,3.3131,0.342178426,4.3471,0,390,390,66,1,172_c641c6c56ca6b594b773084e1363c852abdb65f988d7ff802ee503f2_orig.jpg,0.379572,0.01725328,original,mama13,2022-04-27_09h57.21.392,ratings,2022.1.1,Win32,59.99880002
-1.697731423,4.4731,-2.895355915,6.1946,0,391,391,486,1,818_877aae033c31e3bbca4486321a5307f87cf53c576c546462d3daf194_orig.jpg,-1.277584,0.619436,original,mama13,2022-04-27_09h57.21.392,ratings,2022.1.1,Win32,59.99880002
-2.474213236,2.4472,-2.632141741,6.3508,0,392,392,475,1,748_e519892faa7c772a0afaf9eeff36cf0e411574027ab3d9aa4947a048_bw.jpg,-1.813112,3.307432,blackwhite,mama13,2022-04-27_09h57.21.392,ratings,2022.1.1,Win32,59.99880002
-0.565910474,2.6924,-0.789642522,4.0946,0,393,393,218,1,396_208259ea431d47bb7f3946213eb099834eb119756ce304ad473d4d9f_edges.jpg,2.857144,-0.3809524,edges,mama13,2022-04-27_09h57.21.392,ratings,2022.1.1,Win32,59.99880002
-1.079178114,6.2515,-1.052856696,7.6283,0,394,394,544,1,1005_b980c0747d20935bc63cc27a9e05ce2ff5bae98f859872ec48edd7f5_circblurint.jpg,3.428572,-0.476192,circularblurringint,mama13,2022-04-27_09h57.21.392,ratings,2022.1.1,Win32,59.99880002
-0.144767796,8.693,-1.289749453,3.3036,0,395,395,355,1,500_3b520c7f352afa1a9f8c07e56cc0588cdc04d25ff6e7b602b5e280cb_bw.jpg,-0.8328,3.11766,blackwhite,mama13,2022-04-27_09h57.21.392,ratings,2022.1.1,Win32,59.99880002
0.434303387,5.2752,1.144981657,7.2544,0,396,396,44,1,92_5d20d78a8e57e628c6930676473a4e0a485e715841efd6286c660020_edges.jpg,2.126984,0.0,edges,mama13,2022-04-27_09h57.21.392,ratings,2022.1.1,Win32,59.99880002
2.447891819,2.0316,2.395248984,3.0772,0,397,397,177,1,368_6507b94d7d0199f14efd3706db30c9c44b96085f84e9cc7792e3e0ae_blur.jpg,1.959544,0.400336,blurring,mama13,2022-04-27_09h57.21.392,ratings,2022.1.1,Win32,59.99880002
-1.395035123,3.7646,0.6053926,5.8664,0,398,398,153,1,355_00a76f54934d36566dd0e7b091b8aa6a56d8e6b32d349aa578a10b45_blur.jpg,2.910052,0.3439152,blurring,mama13,2022-04-27_09h57.21.392,ratings,2022.1.1,Win32,59.99880002
-0.118446378,354.5076,-0.118446378,351.8076,0,399,399,112,1,293_3dfdfafc0c6a54b2da7453750ac281f7718c0b3337b0a74c4563d6bd_circblurint.jpg,-2.574524,2.632596,circularblurringint,mama13,2022-04-27_09h57.21.392,ratings,2022.1.1,Win32,59.99880002
-2.105713393,3.5469,-2.961159458,4.832,0,400,400,589,1,1228_557412d34d6a70b7c5d222e030aa485b351a4574e8ba1a3112d1d13d_bw.jpg,2.137444,0.703464,blackwhite,mama13,2022-04-27_09h57.21.392,ratings,2022.1.1,Win32,59.99880002
-2.684784576,2.0512,-2.855873789,3.0995,0,401,401,531,1,915_dc9fd40a3b5d64a180833a7bac86e7556c24f681f473fe255e41f936_blur.jpg,-3.09294,-0.918696,blurring,mama13,2022-04-27_09h57.21.392,ratings,2022.1.1,Win32,59.99880002
-2.974320167,1.4651,-2.526856071,2.4649,0,402,402,235,1,410_9633c4ff6e8888fcfca59a60ca86e9606d3e0736500a254101bdf295_bw.jpg,-0.3677892,2.981028,blackwhite,mama13,2022-04-27_09h57.21.392,ratings,2022.1.1,Win32,59.99880002
-3.382302137,1.5808,-3.671837728,3.0653,0,403,403,330,1,482_a1cd28915c5044c018195ab0fff10dcc95e385246b045a7cd4463ff7_orig.jpg,-3.361852,-1.555612,original,mama13,2022-04-27_09h57.21.392,ratings,2022.1.1,Win32,59.99880002
-1.473999375,2.5667,-1.039695988,4.0316,0,404,404,368,1,616_05a637f5281666f53d4e2ef69351485fc21d629b37ee2006b2076eb6_edges.jpg,-2.380952,-0.832364,edges,mama13,2022-04-27_09h57.21.392,ratings,2022.1.1,Win32,59.99880002
-1.645088588,1.9128,-1.592445753,2.879,0,405,405,562,1,1022_cf035e583d41a856836f8b0ae314ecbe79dffd9e40ef6a08cc26028f_circblurint.jpg,-0.2516452,3.05846,circularblurringint,mama13,2022-04-27_09h57.21.392,ratings,2022.1.1,Win32,59.99880002
0.329017718,6.081,0.934410318,4.591,0,406,406,390,1,663_aaf52107fe3a86392530d88b34e86f9d2b6820714cad98d1e3c2cb67_orig.jpg,2.58766,0.0918696,original,mama13,2022-04-27_09h57.21.392,ratings,2022.1.1,Win32,59.99880002
-1.250267327,1.6143,-1.144981657,2.8295,0,407,407,559,1,1022_cf035e583d41a856836f8b0ae314ecbe79dffd9e40ef6a08cc26028f_bw.jpg,-0.2516452,3.05846,blackwhite,mama13,2022-04-27_09h57.21.392,ratings,2022.1.1,Win32,59.99880002
0.052642835,3.897,0.289535591,5.3649,0,408,408,350,1,498_305b74cdc4784d9d25e72724302e5402def70177ea31ae7e25fab66b_edges.jpg,3.04762,-0.444444,edges,mama13,2022-04-27_09h57.21.392,ratings,2022.1.1,Win32,59.99880002
-1.250267327,5.7821,-0.973892444,7.3171,0,409,409,127,1,349_18d92ef5c21ca70a3dd237aad251594e1688bbe01d8cff37b89c46b8_bw.jpg,-2.74874,-1.258228,blackwhite,mama13,2022-04-27_09h57.21.392,ratings,2022.1.1,Win32,59.99880002
0.802803231,5.5528,0.565910474,7.0026,0,410,410,113,1,293_3dfdfafc0c6a54b2da7453750ac281f7718c0b3337b0a74c4563d6bd_circblurext.jpg,-2.574524,2.632596,circularblurringext,mama13,2022-04-27_09h57.21.392,ratings,2022.1.1,Win32,59.99880002
0.315857009,2.3381,0.894928192,4.7609,0,411,411,429,1,694_7a14b8ab7c564dcb0f628c4de7f6cb54e4c5f6601f774bf167641c37_blur.jpg,1.819588,0.116144,blurring,mama13,2022-04-27_09h57.21.392,ratings,2022.1.1,Win32,59.99880002
-1.223945909,4.6398,-1.01337457,5.8863,0,412,412,226,1,403_57ac47f43882fc031a6067b1a388c0b2cbe8708dcbd2ff1019932eff_circblurint.jpg,-3.333332,-1.396824,circularblurringint,mama13,2022-04-27_09h57.21.392,ratings,2022.1.1,Win32,59.99880002
-0.394821261,3.0908,-0.394821261,4.6518,0,413,413,67,1,172_c641c6c56ca6b594b773084e1363c852abdb65f988d7ff802ee503f2_bw.jpg,0.379572,0.01725328,blackwhite,mama13,2022-04-27_09h57.21.392,ratings,2022.1.1,Win32,59.99880002
0.526428348,4.1501,1.105499531,6.842,0,414,414,183,1,369_98db62a1bdabfd1bc551180da6658005b461585cd21614633cf76470_blur.jpg,2.190476,-0.03174604,blurring,mama13,2022-04-27_09h57.21.392,ratings,2022.1.1,Win32,59.99880002
-2.697945284,2.0287,-2.697945284,3.0954,0,415,415,360,1,508_a7a9519cdc7aad6844030f4e6cd96cffd1b9c49b71e20ea52789bda2_orig.jpg,-3.000388,-1.29694,original,mama13,2022-04-27_09h57.21.392,ratings,2022.1.1,Win32,59.99880002
0.026321417,3.0382,0.947571027,6.4932,0,416,416,59,1,137_0e6a04243c0a42a5e2528a2d181255ca2a4b7bd6e7978c5c2059c69f_circblurext.jpg,-0.95238,2.095236,circularblurringext,mama13,2022-04-27_09h57.21.392,ratings,2022.1.1,Win32,59.99880002
0.592231892,2.2169,0.592231892,3.1508,0,417,417,425,1,692_e3e3bf88684fbbcdb9849a4147f9e2fcd39b0f083554a829aca4e9fa_circblurext.jpg,-0.44522,3.135888,circularblurringext,mama13,2022-04-27_09h57.21.392,ratings,2022.1.1,Win32,59.99880002
-0.394821261,4.6848,0.065803544,7.0502,0,418,418,576,1,1061_665178b9cb0bc869cc2e2b68def4838db04e66f9531098fb75875a09_orig.jpg,0.3492064,-0.3174604,original,mama13,2022-04-27_09h57.21.392,ratings,2022.1.1,Win32,59.99880002
1.684570714,4.9958,1.684570714,6.1617,0,419,419,39,1,82_43f4d5aec7c2e5bd495473f6708a0f2d47c9fe34e1fe9436646cb036_blur.jpg,2.022756,0.505688,blurring,mama13,2022-04-27_09h57.21.392,ratings,2022.1.1,Win32,59.99880002
-1.408195831,38.1478,-1.579285044,39.2162,0,420,420,138,1,353_44e285740cb41818482ac93fc5fbd72c18029444a1d7506c9fc053e7_orig.jpg,-3.232676,-0.87108,original,mama13,2022-04-27_09h57.21.392,ratings,2022.1.1,Win32,59.99880002
-1.868820636,2.9619,-2.066231267,4.5838,0,421,421,534,1,986_a77edb21e78bc3a6aa7406517824596b3496ad6c657b6befb84cf370_orig.jpg,-3.906316,-0.60496,original,mama13,2022-04-27_09h57.21.392,ratings,2022.1.1,Win32,59.99880002
-1.974106306,1.3632,-1.921463471,2.3302,0,422,422,249,1,414_0187bdf7007109b487865b6a9d388997a6817acf052a6a7cdd5b39d9_blur.jpg,-2.786708,-1.133056,blurring,mama13,2022-04-27_09h57.21.392,ratings,2022.1.1,Win32,59.99880002
-1.816177801,1.5311,-2.158356227,2.5086,0,423,423,205,1,381_5935a9f9796adce2f1539af6c75bcdc0c80d847a2ce9b77cf59b7672_bw.jpg,-1.327432,-0.442476,blackwhite,mama13,2022-04-27_09h57.21.392,ratings,2022.1.1,Win32,59.99880002
-0.236892757,2.9978,-0.342178426,4.2145,0,424,424,268,1,431_ab5a1dbbe9292ac7f74e276cdabcd372e2c1f852ff34bf7cc6646ef8_circblurint.jpg,3.102584,0.354334,circularblurringint,mama13,2022-04-27_09h57.21.392,ratings,2022.1.1,Win32,59.99880002
-1.329231579,2.0012,-1.487160084,3.097,0,425,425,263,1,416_8a1f874e0057d67a4e6955865ba88b2d8ce2c8b4469589307687a723_circblurext.jpg,-1.753336,3.088264,circularblurringext,mama13,2022-04-27_09h57.21.392,ratings,2022.1.1,Win32,59.99880002
-1.329231579,2.9342,-1.184463783,4.0004,0,426,426,167,1,361_b5541309527dc3c2422f45a95ebb0ed32005e6fe10d0489a1ff1fbdc_circblurext.jpg,-3.987612,-0.2516452,circularblurringext,mama13,2022-04-27_09h57.21.392,ratings,2022.1.1,Win32,59.99880002
0.039482126,4.7108,1.184463783,7.5515,0,427,427,90,1,258_d26019382777d2159a974a7654923e71598135ce2cd710cea1f92865_orig.jpg,3.497684,-0.61104,original,mama13,2022-04-27_09h57.21.392,ratings,2022.1.1,Win32,59.99880002
-2.224159771,2.1209,-2.566338197,3.603,0,428,428,345,1,494_5c6c3b85a2734a43c24bfe337d42ffcc82b7347227804d01c784cef4_blur.jpg,0.03871468,0.0,blurring,mama13,2022-04-27_09h57.21.392,ratings,2022.1.1,Win32,59.99880002
-0.486946222,4.9658,-0.434303387,6.1656,0,429,429,239,1,410_9633c4ff6e8888fcfca59a60ca86e9606d3e0736500a254101bdf295_circblurext.jpg,-0.3677892,2.981028,circularblurringext,mama13,2022-04-27_09h57.21.392,ratings,2022.1.1,Win32,59.99880002
-3.869248359,1.799,-3.790284107,4.1326,0,430,430,245,1,411_adfd0d5782129756321ff671d0cfb712528504c66c863df11aabd1e7_circblurext.jpg,-3.392332,-1.369576,circularblurringext,mama13,2022-04-27_09h57.21.392,ratings,2022.1.1,Win32,59.99880002
-1.947784888,5.4121,-2.013588432,3.4458,0,431,431,332,1,482_a1cd28915c5044c018195ab0fff10dcc95e385246b045a7cd4463ff7_edges.jpg,-3.361852,-1.555612,edges,mama13,2022-04-27_09h57.21.392,ratings,2022.1.1,Win32,59.99880002
1.250267327,2.2338,2.092552684,3.3491,0,432,432,523,1,877_cab3efed0c9ff4552037df6c1ea4ea9713f915c94592a14dbf2799da_bw.jpg,3.174604,0.3174604,blackwhite,mama13,2022-04-27_09h57.21.392,ratings,2022.1.1,Win32,59.99880002
0.263214174,2.7155,0.184249922,3.8312,0,433,433,93,1,258_d26019382777d2159a974a7654923e71598135ce2cd710cea1f92865_blur.jpg,3.497684,-0.61104,blurring,mama13,2022-04-27_09h57.21.392,ratings,2022.1.1,Win32,59.99880002
0.329017718,4.1807,0.868606774,5.2789,0,434,434,25,1,59_8568373b727f29d67ba6ce4c360dd918c8b08b13495fca56bdda5e82_bw.jpg,2.064896,0.505688,blackwhite,mama13,2022-04-27_09h57.21.392,ratings,2022.1.1,Win32,59.99880002
1.342392288,2.3568,1.368713705,3.6487,0,435,435,229,1,407_578d31d32e806706dde2563213f130b90e621abfed0e47ecabd85d27_bw.jpg,3.5873,-0.444444,blackwhite,mama13,2022-04-27_09h57.21.392,ratings,2022.1.1,Win32,59.99880002
-3.421784263,3.3362,-3.55339135,5.0924,0,436,436,243,1,411_adfd0d5782129756321ff671d0cfb712528504c66c863df11aabd1e7_blur.jpg,-3.392332,-1.369576,blurring,mama13,2022-04-27_09h57.21.392,ratings,2022.1.1,Win32,59.99880002
-1.276588744,4.4681,-1.184463783,5.7591,0,437,437,530,1,915_dc9fd40a3b5d64a180833a7bac86e7556c24f681f473fe255e41f936_edges.jpg,-3.09294,-0.918696,edges,mama13,2022-04-27_09h57.21.392,ratings,2022.1.1,Win32,59.99880002
-1.01337457,3.5033,-1.342392288,4.4698,0,438,438,428,1,694_7a14b8ab7c564dcb0f628c4de7f6cb54e4c5f6601f774bf167641c37_edges.jpg,1.819588,0.116144,edges,mama13,2022-04-27_09h57.21.392,ratings,2022.1.1,Win32,59.99880002
-1.697731423,2.0191,-1.960945597,3.3643,0,439,439,22,1,48_2cc936b2483ab2944c9158e163342b874ef6c1492fd8fca08c0e096e_circblurint.jpg,-1.264224,-0.779604,circularblurringint,mama13,2022-04-27_09h57.21.392,ratings,2022.1.1,Win32,59.99880002
0.40798197,4.5306,1.566124336,5.6255,0,440,440,504,1,855_66d893451dfd1e7615132071c6c8a82b02dc2b37781cd89400883b26_orig.jpg,2.69484,0.2143624,original,mama13,2022-04-27_09h57.21.392,ratings,2022.1.1,Win32,59.99880002
2.566338197,6.5884,2.94799875,8.0778,0,441,441,485,1,759_95e1c46ed9a337414d5c8eada8fa8b9632e18751f5ce6ed587806e91_circblurext.jpg,2.126984,0.0,circularblurringext,mama13,2022-04-27_09h57.21.392,ratings,2022.1.1,Win32,59.99880002
0.81596394,3.3885,0.776481814,5.1952,0,442,442,382,1,640_0ddb4981a5f5842ed5b4f7ef941be53779189df5e718b1fc5475ad80_circblurint.jpg,2.571428,-1.873016,circularblurringint,mama13,2022-04-27_09h57.21.392,ratings,2022.1.1,Win32,59.99880002
3.158570089,4.1343,3.158570089,5.4358,0,443,443,527,1,877_cab3efed0c9ff4552037df6c1ea4ea9713f915c94592a14dbf2799da_circblurext.jpg,3.174604,0.3174604,circularblurringext,mama13,2022-04-27_09h57.21.392,ratings,2022.1.1,Win32,59.99880002
-2.066231267,4.9122,-1.987267014,6.3247,0,444,444,317,1,459_46e25de472bb056cb470716d30937415f7344bfc4354d6eb710d8c9f_circblurext.jpg,0.03174604,0.0,circularblurringext,mama13,2022-04-27_09h57.21.392,ratings,2022.1.1,Win32,59.99880002
-1.000213862,4.2179,-0.973892444,5.3261,0,445,445,342,1,494_5c6c3b85a2734a43c24bfe337d42ffcc82b7347227804d01c784cef4_orig.jpg,0.03871468,0.0,original,mama13,2022-04-27_09h57.21.392,ratings,2022.1.1,Win32,59.99880002
3.777123398,1.5701,3.684998437,2.8258,0,446,446,175,1,368_6507b94d7d0199f14efd3706db30c9c44b96085f84e9cc7792e3e0ae_bw.jpg,1.959544,0.400336,blackwhite,mama13,2022-04-27_09h57.21.392,ratings,2022.1.1,Win32,59.99880002
-2.145195519,1.994,-2.250481188,2.8198,0,447,447,478,1,748_e519892faa7c772a0afaf9eeff36cf0e411574027ab3d9aa4947a048_circblurint.jpg,-1.813112,3.307432,circularblurringint,mama13,2022-04-27_09h57.21.392,ratings,2022.1.1,Win32,59.99880002
