valence_slider.response,valence_slider.rt,arousal_slider.response,arousal_slider.rt,trials.thisRepN,trials.thisTrialN,trials.thisN,trials.thisIndex,trials.ran,img_name,vm,am,manipulation,participant,date,expName,psychopyVersion,OS,frameRate
-0.029279362,49.5934,-0.751503617,50.5429,0,0,0,176,1,368_6507b94d7d0199f14efd3706db30c9c44b96085f84e9cc7792e3e0ae_edges.jpg,1.959544,0.400336,edges,MILE27,2022-05-16_21h25.03.225,ratings,2022.1.1,Win32,60.08171113
-0.419670851,21.734,-0.439190426,26.4406,0,1,1,292,1,442_7449d79dae5d652af9b2429872cabdef938646ba024db2f431b3b28d_circblurint.jpg,1.619048,0.126984,circularblurringint,MILE27,2022-05-16_21h25.03.225,ratings,2022.1.1,Win32,60.08171113
0.936939575,4.186,0.839341702,6.6714,0,2,2,472,1,741_2b218fb015e3da83db73cacdb52e61e0c2534c1fe255bb1c5c74d47f_circblurint.jpg,3.140096,0.448584,circularblurringint,MILE27,2022-05-16_21h25.03.225,ratings,2022.1.1,Win32,60.08171113
0.975978724,6.2655,-0.17567617,7.4389,0,3,3,44,1,92_5d20d78a8e57e628c6930676473a4e0a485e715841efd6286c660020_edges.jpg,2.126984,0.0,edges,MILE27,2022-05-16_21h25.03.225,ratings,2022.1.1,Win32,60.08171113
-1.844599788,5.9415,-3.81607681,4.1592,0,4,4,209,1,381_5935a9f9796adce2f1539af6c75bcdc0c80d847a2ce9b77cf59b7672_circblurext.jpg,-1.327432,-0.442476,circularblurringext,MILE27,2022-05-16_21h25.03.225,ratings,2022.1.1,Win32,60.08171113
0.390391489,25.2686,-0.448950213,30.0993,0,5,5,154,1,355_00a76f54934d36566dd0e7b091b8aa6a56d8e6b32d349aa578a10b45_circblurint.jpg,2.910052,0.3439152,circularblurringint,MILE27,2022-05-16_21h25.03.225,ratings,2022.1.1,Win32,60.08171113
0.439190426,5.404,-3.728238724,3.5762,0,6,6,68,1,172_c641c6c56ca6b594b773084e1363c852abdb65f988d7ff802ee503f2_edges.jpg,0.379572,0.01725328,edges,MILE27,2022-05-16_21h25.03.225,ratings,2022.1.1,Win32,60.08171113
0.126877234,3.4513,-0.74174383,4.8035,0,7,7,457,1,720_483c541c48959a597fcf44320941afaf8b7695105f90d65b5f6b30f2_bw.jpg,2.158732,-0.2539684,blackwhite,MILE27,2022-05-16_21h25.03.225,ratings,2022.1.1,Win32,60.08171113
-1.356610426,3.6682,-2.547304469,5.6034,0,8,8,271,1,434_ba36d91204d7e578001f6a545d7501e65d209554def5a3c8b7583825_bw.jpg,-3.523808,1.428572,blackwhite,MILE27,2022-05-16_21h25.03.225,ratings,2022.1.1,Win32,60.08171113
-1.512767022,6.6716,0.517268724,4.1976,0,9,9,58,1,137_0e6a04243c0a42a5e2528a2d181255ca2a4b7bd6e7978c5c2059c69f_circblurint.jpg,-0.95238,2.095236,circularblurringint,MILE27,2022-05-16_21h25.03.225,ratings,2022.1.1,Win32,60.08171113
-1.48348766,2.9727,0.214715319,4.7028,0,10,10,549,1,1010_06d15f44b979c086561137000ec070ba4cd479856f92840a7850b2bf_blur.jpg,0.189786,-0.189786,blurring,MILE27,2022-05-16_21h25.03.225,ratings,2022.1.1,Win32,60.08171113
0.692944894,2.2387,-0.468469787,8.5996,0,11,11,233,1,407_578d31d32e806706dde2563213f130b90e621abfed0e47ecabd85d27_circblurext.jpg,3.5873,-0.444444,circularblurringext,MILE27,2022-05-16_21h25.03.225,ratings,2022.1.1,Win32,60.08171113
-2.108114043,43.2787,-0.400151277,41.9682,0,12,12,207,1,381_5935a9f9796adce2f1539af6c75bcdc0c80d847a2ce9b77cf59b7672_blur.jpg,-1.327432,-0.442476,blurring,MILE27,2022-05-16_21h25.03.225,ratings,2022.1.1,Win32,60.08171113
0.888140639,2.1256,-3.367126597,4.0026,0,13,13,445,1,709_69c01dcde028a2a1a913f1a2a5026ae1748484f75c89217a040c6791_bw.jpg,1.432444,-0.01935732,blackwhite,MILE27,2022-05-16_21h25.03.225,ratings,2022.1.1,Win32,60.08171113
2.996254682,2.2448,1.990996596,3.4107,0,14,14,475,1,748_e519892faa7c772a0afaf9eeff36cf0e411574027ab3d9aa4947a048_bw.jpg,-1.813112,3.307432,blackwhite,MILE27,2022-05-16_21h25.03.225,ratings,2022.1.1,Win32,60.08171113
-3.757518086,2.0763,1.932437873,3.3848,0,15,15,529,1,915_dc9fd40a3b5d64a180833a7bac86e7556c24f681f473fe255e41f936_bw.jpg,-3.09294,-0.918696,blackwhite,MILE27,2022-05-16_21h25.03.225,ratings,2022.1.1,Win32,60.08171113
1.005258085,5.3571,0.517268724,6.4115,0,16,16,229,1,407_578d31d32e806706dde2563213f130b90e621abfed0e47ecabd85d27_bw.jpg,3.5873,-0.444444,blackwhite,MILE27,2022-05-16_21h25.03.225,ratings,2022.1.1,Win32,60.08171113
0.673425319,8.123,-1.434688724,7.2221,0,17,17,526,1,877_cab3efed0c9ff4552037df6c1ea4ea9713f915c94592a14dbf2799da_circblurint.jpg,3.174604,0.3174604,circularblurringint,MILE27,2022-05-16_21h25.03.225,ratings,2022.1.1,Win32,60.08171113
-2.088594469,4.8694,1.707962766,3.2675,0,18,18,95,1,258_d26019382777d2159a974a7654923e71598135ce2cd710cea1f92865_circblurext.jpg,3.497684,-0.61104,circularblurringext,MILE27,2022-05-16_21h25.03.225,ratings,2022.1.1,Win32,60.08171113
0.087838085,1.4878,0.800302553,2.1677,0,19,19,13,1,39_2fafccaa4dc69045a05845f59c6b3cd2edcf7e0e0c108b24e553afe0_bw.jpg,2.022756,0.463548,blackwhite,MILE27,2022-05-16_21h25.03.225,ratings,2022.1.1,Win32,60.08171113
-0.17567617,5.3484,-3.269528724,9.3472,0,20,20,297,1,449_9c1e990a3480e5b51430fe76b0188e69ba2468fd6a866b88b2d0dd75_blur.jpg,0.095238,0.03174604,blurring,MILE27,2022-05-16_21h25.03.225,ratings,2022.1.1,Win32,60.08171113
-3.718478937,1.8994,-1.786041064,3.4156,0,21,21,160,1,358_157f8ac929713531a15b1ecf115e7b659cb90e83d675251e368d165f_circblurint.jpg,-3.777776,-0.571428,circularblurringint,MILE27,2022-05-16_21h25.03.225,ratings,2022.1.1,Win32,60.08171113
1.268772341,2.8376,-0.390391489,3.6339,0,22,22,147,1,354_e46c3ec6fb00773f64f2bcd212385f253c389808fe724b7cf8611051_blur.jpg,2.018292,0.0,blurring,MILE27,2022-05-16_21h25.03.225,ratings,2022.1.1,Win32,60.08171113
1.249252766,5.3613,0.302553404,6.2878,0,23,23,524,1,877_cab3efed0c9ff4552037df6c1ea4ea9713f915c94592a14dbf2799da_edges.jpg,3.174604,0.3174604,edges,MILE27,2022-05-16_21h25.03.225,ratings,2022.1.1,Win32,60.08171113
1.083336383,1.7081,-1.678683405,2.8199,0,24,24,521,1,860_05c4e22518a30d3d2add458a8fc6488f87b9b02dd8e385ded939f025_circblurext.jpg,1.955092,0.3097172,circularblurringext,MILE27,2022-05-16_21h25.03.225,ratings,2022.1.1,Win32,60.08171113
0.370871915,1.6,0.936939575,2.8434,0,25,25,565,1,1037_e2eb929a6de79a63ce6cfe5321fcb74a203b134e4094932d90b01d99_bw.jpg,2.651956,0.0,blackwhite,MILE27,2022-05-16_21h25.03.225,ratings,2022.1.1,Win32,60.08171113
2.000756384,4.8113,1.132135319,6.6214,0,26,26,522,1,877_cab3efed0c9ff4552037df6c1ea4ea9713f915c94592a14dbf2799da_orig.jpg,3.174604,0.3174604,original,MILE27,2022-05-16_21h25.03.225,ratings,2022.1.1,Win32,60.08171113
1.649404043,3.0781,1.356610426,3.7961,0,27,27,444,1,709_69c01dcde028a2a1a913f1a2a5026ae1748484f75c89217a040c6791_orig.jpg,1.432444,-0.01935732,original,MILE27,2022-05-16_21h25.03.225,ratings,2022.1.1,Win32,60.08171113
-0.234234894,3.291,-3.825836597,2.3851,0,28,28,553,1,1014_a5c212ca979d482cf94c2db7697aba75620391a64b030ab7ad2bbecf_bw.jpg,-3.174604,-1.374372,blackwhite,MILE27,2022-05-16_21h25.03.225,ratings,2022.1.1,Win32,60.08171113
0.419670851,7.3495,-3.942954044,5.3605,0,29,29,523,1,877_cab3efed0c9ff4552037df6c1ea4ea9713f915c94592a14dbf2799da_bw.jpg,3.174604,0.3174604,blackwhite,MILE27,2022-05-16_21h25.03.225,ratings,2022.1.1,Win32,60.08171113
0.156156596,3.2185,-3.933194256,2.4634,0,30,30,578,1,1061_665178b9cb0bc869cc2e2b68def4838db04e66f9531098fb75875a09_edges.jpg,0.3492064,-0.3174604,edges,MILE27,2022-05-16_21h25.03.225,ratings,2022.1.1,Win32,60.08171113
1.727482341,1.7678,-2.147153192,2.3838,0,31,31,203,1,380_34772591c787182a37724027eac6948ebc9d4064f6a601d23b923b8e_circblurext.jpg,2.222224,-0.063492,circularblurringext,MILE27,2022-05-16_21h25.03.225,ratings,2022.1.1,Win32,60.08171113
-1.463968085,2.5519,0.126877234,4.5524,0,32,32,259,1,416_8a1f874e0057d67a4e6955865ba88b2d8ce2c8b4469589307687a723_bw.jpg,-1.753336,3.088264,blackwhite,MILE27,2022-05-16_21h25.03.225,ratings,2022.1.1,Win32,60.08171113
0.878380851,5.9711,-0.136637021,4.7437,0,33,33,63,1,156_08e8cf8f04630e9213e610580de73f51572d1d589878648700bae4dc_blur.jpg,2.222224,0.0,blurring,MILE27,2022-05-16_21h25.03.225,ratings,2022.1.1,Win32,60.08171113
-1.151654894,2.0695,0.731984043,3.9529,0,34,34,249,1,414_0187bdf7007109b487865b6a9d388997a6817acf052a6a7cdd5b39d9_blur.jpg,-2.786708,-1.133056,blurring,MILE27,2022-05-16_21h25.03.225,ratings,2022.1.1,Win32,60.08171113
-1.083336383,4.9854,-0.868621064,6.0701,0,35,35,489,1,818_877aae033c31e3bbca4486321a5307f87cf53c576c546462d3daf194_blur.jpg,-1.277584,0.619436,blurring,MILE27,2022-05-16_21h25.03.225,ratings,2022.1.1,Win32,60.08171113
-3.864875746,1.939,0.136637021,3.9554,0,36,36,163,1,361_b5541309527dc3c2422f45a95ebb0ed32005e6fe10d0489a1ff1fbdc_bw.jpg,-3.987612,-0.2516452,blackwhite,MILE27,2022-05-16_21h25.03.225,ratings,2022.1.1,Win32,60.08171113
0.039039149,1.9346,0.126877234,2.4911,0,37,37,351,1,498_305b74cdc4784d9d25e72724302e5402def70177ea31ae7e25fab66b_blur.jpg,3.04762,-0.444444,blurring,MILE27,2022-05-16_21h25.03.225,ratings,2022.1.1,Win32,60.08171113
-0.058558723,3.6282,-0.058558723,4.1688,0,38,38,197,1,379_eeaa6d9bf5a4ef205dc48bc505cf3a7f24ea86e99af9b371e03602a7_circblurext.jpg,-0.3926308,2.88936,circularblurringext,MILE27,2022-05-16_21h25.03.225,ratings,2022.1.1,Win32,60.08171113
-0.214715319,1.984,-0.117117447,2.5009,0,39,39,21,1,48_2cc936b2483ab2944c9158e163342b874ef6c1492fd8fca08c0e096e_blur.jpg,-1.264224,-0.779604,blurring,MILE27,2022-05-16_21h25.03.225,ratings,2022.1.1,Win32,60.08171113
-1.912918298,1.8262,2.166672767,2.4477,0,40,40,403,1,686_6745b57686ad5d1bd6cf3e7ed5bc0243a154f8939e88e30321dfcfdb_bw.jpg,-1.523808,3.650792,blackwhite,MILE27,2022-05-16_21h25.03.225,ratings,2022.1.1,Win32,60.08171113
-0.858861277,2.8672,1.063816809,3.6183,0,41,41,237,1,410_9633c4ff6e8888fcfca59a60ca86e9606d3e0736500a254101bdf295_blur.jpg,-0.3677892,2.981028,blurring,MILE27,2022-05-16_21h25.03.225,ratings,2022.1.1,Win32,60.08171113
-0.009759787,5.8043,0.663665532,6.8321,0,42,42,373,1,620_9674719009d75dcfeaed7f15932c43e1fd1af5e25d47b8aadd61efe2_bw.jpg,-0.561364,1.142084,blackwhite,MILE27,2022-05-16_21h25.03.225,ratings,2022.1.1,Win32,60.08171113
0.751503617,2.9019,-0.790542766,2.0845,0,43,43,467,1,736_bb85db1bcda8eb34299aa5791ac65a0a7c343266eb2d6e6e328ec0e1_circblurext.jpg,3.650792,-0.03174604,circularblurringext,MILE27,2022-05-16_21h25.03.225,ratings,2022.1.1,Win32,60.08171113
0.956459149,2.2344,-2.127633618,1.4856,0,44,44,53,1,112_b6a4ce721c2e42943d7d8b168751d74cd2f372b1cd4fed5a4404faec_circblurext.jpg,2.107036,0.505688,circularblurringext,MILE27,2022-05-16_21h25.03.225,ratings,2022.1.1,Win32,60.08171113
-0.068318511,3.4605,2.127633618,2.339,0,45,45,67,1,172_c641c6c56ca6b594b773084e1363c852abdb65f988d7ff802ee503f2_bw.jpg,0.379572,0.01725328,blackwhite,MILE27,2022-05-16_21h25.03.225,ratings,2022.1.1,Win32,60.08171113
-0.10735766,2.0171,-0.897900426,2.7041,0,46,46,316,1,459_46e25de472bb056cb470716d30937415f7344bfc4354d6eb710d8c9f_circblurint.jpg,0.03174604,0.0,circularblurringint,MILE27,2022-05-16_21h25.03.225,ratings,2022.1.1,Win32,60.08171113
-3.972233405,1.8783,1.512767022,2.7851,0,47,47,162,1,361_b5541309527dc3c2422f45a95ebb0ed32005e6fe10d0489a1ff1fbdc_orig.jpg,-3.987612,-0.2516452,original,MILE27,2022-05-16_21h25.03.225,ratings,2022.1.1,Win32,60.08171113
0.858861277,22.62,-0.575827447,23.7301,0,48,48,40,1,82_43f4d5aec7c2e5bd495473f6708a0f2d47c9fe34e1fe9436646cb036_circblurint.jpg,2.022756,0.505688,circularblurringint,MILE27,2022-05-16_21h25.03.225,ratings,2022.1.1,Win32,60.08171113
-1.112615745,3.4016,1.151654894,4.654,0,49,49,306,1,455_34a7d8167619d110206c369e3f7dce8a3f99db763a9d8e2b956501d3_orig.jpg,-2.526412,-0.3827896,original,MILE27,2022-05-16_21h25.03.225,ratings,2022.1.1,Win32,60.08171113
2.059315107,2.2558,0.136637021,4.1778,0,50,50,2,1,13_771f4fcf0a212d25d6a78565e7f34cc5ddd823e7afbdc77ef063326e_edges.jpg,2.190476,0.0,edges,MILE27,2022-05-16_21h25.03.225,ratings,2022.1.1,Win32,60.08171113
0.673425319,1.9921,-2.693701277,3.072,0,51,51,352,1,498_305b74cdc4784d9d25e72724302e5402def70177ea31ae7e25fab66b_circblurint.jpg,3.04762,-0.444444,circularblurringint,MILE27,2022-05-16_21h25.03.225,ratings,2022.1.1,Win32,60.08171113
-0.117117447,2.4358,-0.087838085,1.7721,0,52,52,205,1,381_5935a9f9796adce2f1539af6c75bcdc0c80d847a2ce9b77cf59b7672_bw.jpg,-1.327432,-0.442476,blackwhite,MILE27,2022-05-16_21h25.03.225,ratings,2022.1.1,Win32,60.08171113
1.737242128,2.3187,1.629884469,1.7245,0,53,53,119,1,332_4d584229bdae2e1782f77f0e953e528f13c3dfa79b4b94736c0310fa_circblurext.jpg,3.157348,0.483092,circularblurringext,MILE27,2022-05-16_21h25.03.225,ratings,2022.1.1,Win32,60.08171113
-1.239492979,4.6238,-0.985738511,5.7383,0,54,54,325,1,468_8b69b13120daebadd8a4a3166e1419f2404395cba231307a4efa9fde_bw.jpg,2.031744,0.2539684,blackwhite,MILE27,2022-05-16_21h25.03.225,ratings,2022.1.1,Win32,60.08171113
0.975978724,12.2176,-0.029279362,13.0002,0,55,55,431,1,694_7a14b8ab7c564dcb0f628c4de7f6cb54e4c5f6601f774bf167641c37_circblurext.jpg,1.819588,0.116144,circularblurringext,MILE27,2022-05-16_21h25.03.225,ratings,2022.1.1,Win32,60.08171113
0.91742,2.6223,0.28303383,3.4713,0,56,56,498,1,854_081a8409e4d6d10923b2dedcc16a3fca405fcd602e55a20d84cac69d_orig.jpg,3.088264,1.21538,original,MILE27,2022-05-16_21h25.03.225,ratings,2022.1.1,Win32,60.08171113
0.780782979,2.2076,1.083336383,1.5834,0,57,57,64,1,156_08e8cf8f04630e9213e610580de73f51572d1d589878648700bae4dc_circblurint.jpg,2.222224,0.0,circularblurringint,MILE27,2022-05-16_21h25.03.225,ratings,2022.1.1,Win32,60.08171113
-0.10735766,2.3171,-1.639644256,3.3519,0,58,58,599,1,1239_cee00457f4cfb76a407b12fd5ad714d440a4614c1e5467ee16caf618_circblurext.jpg,-0.03174604,0.190476,circularblurringext,MILE27,2022-05-16_21h25.03.225,ratings,2022.1.1,Win32,60.08171113
-2.234991277,3.3954,0.995498298,2.5353,0,59,59,531,1,915_dc9fd40a3b5d64a180833a7bac86e7556c24f681f473fe255e41f936_blur.jpg,-3.09294,-0.918696,blurring,MILE27,2022-05-16_21h25.03.225,ratings,2022.1.1,Win32,60.08171113
-1.864119362,1.4658,0.790542766,2.1674,0,60,60,406,1,686_6745b57686ad5d1bd6cf3e7ed5bc0243a154f8939e88e30321dfcfdb_circblurint.jpg,-1.523808,3.650792,circularblurringint,MILE27,2022-05-16_21h25.03.225,ratings,2022.1.1,Win32,60.08171113
-0.878380851,24.369,0.810062341,23.6791,0,61,61,559,1,1022_cf035e583d41a856836f8b0ae314ecbe79dffd9e40ef6a08cc26028f_bw.jpg,-0.2516452,3.05846,blackwhite,MILE27,2022-05-16_21h25.03.225,ratings,2022.1.1,Win32,60.08171113
-0.185435957,1.6054,0.097597872,2.3731,0,62,62,23,1,48_2cc936b2483ab2944c9158e163342b874ef6c1492fd8fca08c0e096e_circblurext.jpg,-1.264224,-0.779604,circularblurringext,MILE27,2022-05-16_21h25.03.225,ratings,2022.1.1,Win32,60.08171113
-1.561565958,1.8263,0.868621064,2.7126,0,63,63,387,1,646_577760d718dab44c6f04d77408c5644a120065ce07a9503957d0850a_blur.jpg,-2.690668,2.61324,blurring,MILE27,2022-05-16_21h25.03.225,ratings,2022.1.1,Win32,60.08171113
1.015017873,2.2674,-1.473727873,1.5433,0,64,64,17,1,39_2fafccaa4dc69045a05845f59c6b3cd2edcf7e0e0c108b24e553afe0_circblurext.jpg,2.022756,0.463548,circularblurringext,MILE27,2022-05-16_21h25.03.225,ratings,2022.1.1,Win32,60.08171113
-1.717722554,6.1124,1.190694043,5.3774,0,65,65,372,1,620_9674719009d75dcfeaed7f15932c43e1fd1af5e25d47b8aadd61efe2_orig.jpg,-0.561364,1.142084,original,MILE27,2022-05-16_21h25.03.225,ratings,2022.1.1,Win32,60.08171113
-0.214715319,2.8539,0.156156596,3.4417,0,66,66,101,1,267_792043debad81ce271cec5b3c3bd9d264efc13f362bec9c7a3f72fe7_circblurext.jpg,1.980616,0.2107036,circularblurringext,MILE27,2022-05-16_21h25.03.225,ratings,2022.1.1,Win32,60.08171113
-0.097597872,4.512,0.673425319,5.592,0,67,67,360,1,508_a7a9519cdc7aad6844030f4e6cd96cffd1b9c49b71e20ea52789bda2_orig.jpg,-3.000388,-1.29694,original,MILE27,2022-05-16_21h25.03.225,ratings,2022.1.1,Win32,60.08171113
0.009759787,6.8872,0.214715319,7.724,0,68,68,371,1,616_05a637f5281666f53d4e2ef69351485fc21d629b37ee2006b2076eb6_circblurext.jpg,-2.380952,-0.832364,circularblurringext,MILE27,2022-05-16_21h25.03.225,ratings,2022.1.1,Win32,60.08171113
-0.888140639,9.5878,0.097597872,10.6977,0,69,69,299,1,449_9c1e990a3480e5b51430fe76b0188e69ba2468fd6a866b88b2d0dd75_circblurext.jpg,0.095238,0.03174604,circularblurringext,MILE27,2022-05-16_21h25.03.225,ratings,2022.1.1,Win32,60.08171113
1.122375532,1.7434,1.424928937,2.2683,0,70,70,179,1,368_6507b94d7d0199f14efd3706db30c9c44b96085f84e9cc7792e3e0ae_circblurext.jpg,1.959544,0.400336,circularblurringext,MILE27,2022-05-16_21h25.03.225,ratings,2022.1.1,Win32,60.08171113
0.653905745,5.0577,1.864119362,5.7872,0,71,71,172,1,365_45a719cabbc9aa308c4fcb30d529489c6966ac4073874af84f665c61_circblurint.jpg,2.507936,-1.968252,circularblurringint,MILE27,2022-05-16_21h25.03.225,ratings,2022.1.1,Win32,60.08171113
0.975978724,1.6472,1.639644256,2.0426,0,72,72,546,1,1010_06d15f44b979c086561137000ec070ba4cd479856f92840a7850b2bf_orig.jpg,0.189786,-0.189786,original,MILE27,2022-05-16_21h25.03.225,ratings,2022.1.1,Win32,60.08171113
1.112615745,1.185,1.65916383,1.9,0,73,73,33,1,60_ad52063167538de24f94d7dfd04808cb94cf8f426c40871d2f126505_blur.jpg,2.158732,0.0,blurring,MILE27,2022-05-16_21h25.03.225,ratings,2022.1.1,Win32,60.08171113
-3.81607681,4.484,1.786041064,5.286,0,74,74,137,1,349_8809a67686d34844c915d7700e2ea72ad1c02ae232ae0d3cc0e458d4_circblurext.jpg,-3.619048,-0.2857144,circularblurringext,MILE27,2022-05-16_21h25.03.225,ratings,2022.1.1,Win32,60.08171113
0.829581915,2.6183,-3.70871915,4.2856,0,75,75,7,1,28_6318543b74eeb646a1735477ebc023fdc9ac3849bc0db1957c272a26_bw.jpg,2.811244,-0.74584,blackwhite,MILE27,2022-05-16_21h25.03.225,ratings,2022.1.1,Win32,60.08171113
-2.147153192,1.6334,1.141895107,2.4163,0,76,76,355,1,500_3b520c7f352afa1a9f8c07e56cc0588cdc04d25ff6e7b602b5e280cb_bw.jpg,-0.8328,3.11766,blackwhite,MILE27,2022-05-16_21h25.03.225,ratings,2022.1.1,Win32,60.08171113
0.263514255,5.4111,0.117117447,6.1939,0,77,77,491,1,818_877aae033c31e3bbca4486321a5307f87cf53c576c546462d3daf194_circblurext.jpg,-1.277584,0.619436,circularblurringext,MILE27,2022-05-16_21h25.03.225,ratings,2022.1.1,Win32,60.08171113
1.112615745,4.3562,-0.868621064,4.9702,0,78,78,378,1,640_0ddb4981a5f5842ed5b4f7ef941be53779189df5e718b1fc5475ad80_orig.jpg,2.571428,-1.873016,original,MILE27,2022-05-16_21h25.03.225,ratings,2022.1.1,Win32,60.08171113
-3.962473618,2.5511,3.767277873,3.376,0,79,79,91,1,258_d26019382777d2159a974a7654923e71598135ce2cd710cea1f92865_bw.jpg,3.497684,-0.61104,blackwhite,MILE27,2022-05-16_21h25.03.225,ratings,2022.1.1,Win32,60.08171113
-0.400151277,46.5379,1.122375532,47.1604,0,80,80,453,1,716_2ab64478147184c4df720a52cf621875addc9007cb2967e4a9a88909_blur.jpg,2.428484,0.0,blurring,MILE27,2022-05-16_21h25.03.225,ratings,2022.1.1,Win32,60.08171113
2.059315107,1.5853,1.951957447,2.1368,0,81,81,232,1,407_578d31d32e806706dde2563213f130b90e621abfed0e47ecabd85d27_circblurint.jpg,3.5873,-0.444444,circularblurringint,MILE27,2022-05-16_21h25.03.225,ratings,2022.1.1,Win32,60.08171113
1.229733192,1.4717,1.337090851,1.9854,0,82,82,382,1,640_0ddb4981a5f5842ed5b4f7ef941be53779189df5e718b1fc5475ad80_circblurint.jpg,2.571428,-1.873016,circularblurringint,MILE27,2022-05-16_21h25.03.225,ratings,2022.1.1,Win32,60.08171113
0.956459149,3.1885,1.073576596,3.7522,0,83,83,520,1,860_05c4e22518a30d3d2add458a8fc6488f87b9b02dd8e385ded939f025_circblurint.jpg,1.955092,0.3097172,circularblurringint,MILE27,2022-05-16_21h25.03.225,ratings,2022.1.1,Win32,60.08171113
0.858861277,3.1179,-3.006014469,3.7725,0,84,84,81,1,242_85283f6935a89812ab229dcad9ba184529c9242ac3106d768ecf3ab3_blur.jpg,2.14918,-0.2949852,blurring,MILE27,2022-05-16_21h25.03.225,ratings,2022.1.1,Win32,60.08171113
-0.165916383,1.377,-3.835596384,2.5184,0,85,85,219,1,396_208259ea431d47bb7f3946213eb099834eb119756ce304ad473d4d9f_blur.jpg,2.857144,-0.3809524,blurring,MILE27,2022-05-16_21h25.03.225,ratings,2022.1.1,Win32,60.08171113
1.073576596,3.8689,-2.039795532,2.6389,0,86,86,185,1,369_98db62a1bdabfd1bc551180da6658005b461585cd21614633cf76470_circblurext.jpg,2.190476,-0.03174604,circularblurringext,MILE27,2022-05-16_21h25.03.225,ratings,2022.1.1,Win32,60.08171113
0.341592553,2.6213,0.653905745,3.1212,0,87,87,76,1,236_f645730e1eb06155418c9a571329cc7fa320654fcaaedf1048b5cc11_circblurint.jpg,2.253968,0.0,circularblurringint,MILE27,2022-05-16_21h25.03.225,ratings,2022.1.1,Win32,60.08171113
1.346850639,1.5137,-3.806317022,2.5683,0,88,88,28,1,59_8568373b727f29d67ba6ce4c360dd918c8b08b13495fca56bdda5e82_circblurint.jpg,2.064896,0.505688,circularblurringint,MILE27,2022-05-16_21h25.03.225,ratings,2022.1.1,Win32,60.08171113
0.322072979,1.4175,-3.923434469,2.5178,0,89,89,70,1,172_c641c6c56ca6b594b773084e1363c852abdb65f988d7ff802ee503f2_circblurint.jpg,0.379572,0.01725328,circularblurringint,MILE27,2022-05-16_21h25.03.225,ratings,2022.1.1,Win32,60.08171113
0.039039149,1.5279,-0.117117447,2.6848,0,90,90,273,1,434_ba36d91204d7e578001f6a545d7501e65d209554def5a3c8b7583825_blur.jpg,-3.523808,1.428572,blurring,MILE27,2022-05-16_21h25.03.225,ratings,2022.1.1,Win32,60.08171113
1.395649575,1.4505,-3.99175298,2.1345,0,91,91,509,1,855_66d893451dfd1e7615132071c6c8a82b02dc2b37781cd89400883b26_circblurext.jpg,2.69484,0.2143624,circularblurringext,MILE27,2022-05-16_21h25.03.225,ratings,2022.1.1,Win32,60.08171113
0.292793617,3.9124,1.122375532,5.904,0,92,92,594,1,1239_cee00457f4cfb76a407b12fd5ad714d440a4614c1e5467ee16caf618_orig.jpg,-0.03174604,0.190476,original,MILE27,2022-05-16_21h25.03.225,ratings,2022.1.1,Win32,60.08171113
1.015017873,1.5232,-3.962473618,2.65,0,93,93,430,1,694_7a14b8ab7c564dcb0f628c4de7f6cb54e4c5f6601f774bf167641c37_circblurint.jpg,1.819588,0.116144,circularblurringint,MILE27,2022-05-16_21h25.03.225,ratings,2022.1.1,Win32,60.08171113
1.063816809,1.7576,0.956459149,2.6019,0,94,94,75,1,236_f645730e1eb06155418c9a571329cc7fa320654fcaaedf1048b5cc11_blur.jpg,2.253968,0.0,blurring,MILE27,2022-05-16_21h25.03.225,ratings,2022.1.1,Win32,60.08171113
0.91742,1.494,0.819822128,2.1338,0,95,95,175,1,368_6507b94d7d0199f14efd3706db30c9c44b96085f84e9cc7792e3e0ae_bw.jpg,1.959544,0.400336,blackwhite,MILE27,2022-05-16_21h25.03.225,ratings,2022.1.1,Win32,60.08171113
-0.097597872,2.2694,-0.058558723,3.2027,0,96,96,392,1,663_aaf52107fe3a86392530d88b34e86f9d2b6820714cad98d1e3c2cb67_edges.jpg,2.58766,0.0918696,edges,MILE27,2022-05-16_21h25.03.225,ratings,2022.1.1,Win32,60.08171113
1.132135319,37.2855,-3.503763618,38.3709,0,97,97,26,1,59_8568373b727f29d67ba6ce4c360dd918c8b08b13495fca56bdda5e82_edges.jpg,2.064896,0.505688,edges,MILE27,2022-05-16_21h25.03.225,ratings,2022.1.1,Win32,60.08171113
0.888140639,4.39,0.614866596,5.1033,0,98,98,1,1,13_771f4fcf0a212d25d6a78565e7f34cc5ddd823e7afbdc77ef063326e_bw.jpg,2.190476,0.0,blackwhite,MILE27,2022-05-16_21h25.03.225,ratings,2022.1.1,Win32,60.08171113
0.995498298,1.9998,0.888140639,2.4218,0,99,99,41,1,82_43f4d5aec7c2e5bd495473f6708a0f2d47c9fe34e1fe9436646cb036_circblurext.jpg,2.022756,0.505688,circularblurringext,MILE27,2022-05-16_21h25.03.225,ratings,2022.1.1,Win32,60.08171113
1.063816809,3.2454,-0.858861277,4.5364,0,100,100,462,1,736_bb85db1bcda8eb34299aa5791ac65a0a7c343266eb2d6e6e328ec0e1_orig.jpg,3.650792,-0.03174604,original,MILE27,2022-05-16_21h25.03.225,ratings,2022.1.1,Win32,60.08171113
-0.039039149,2.9966,3.045053618,2.1262,0,101,101,258,1,416_8a1f874e0057d67a4e6955865ba88b2d8ce2c8b4469589307687a723_orig.jpg,-1.753336,3.088264,original,MILE27,2022-05-16_21h25.03.225,ratings,2022.1.1,Win32,60.08171113
3.581841916,1.4502,3.162171065,2.1428,0,102,102,114,1,332_4d584229bdae2e1782f77f0e953e528f13c3dfa79b4b94736c0310fa_orig.jpg,3.157348,0.483092,original,MILE27,2022-05-16_21h25.03.225,ratings,2022.1.1,Win32,60.08171113
3.874635533,1.6845,3.757518086,2.3113,0,103,103,277,1,440_9bf7e8609729bf888835168834da6c3ff30b75d0d4f36e2ee6918bcc_bw.jpg,-2.284164,2.710028,blackwhite,MILE27,2022-05-16_21h25.03.225,ratings,2022.1.1,Win32,60.08171113
1.883638937,1.8678,-3.845356171,2.953,0,104,104,228,1,407_578d31d32e806706dde2563213f130b90e621abfed0e47ecabd85d27_orig.jpg,3.5873,-0.444444,original,MILE27,2022-05-16_21h25.03.225,ratings,2022.1.1,Win32,60.08171113
0.039039149,3.2359,-2.918176384,3.9118,0,105,105,588,1,1228_557412d34d6a70b7c5d222e030aa485b351a4574e8ba1a3112d1d13d_orig.jpg,2.137444,0.703464,original,MILE27,2022-05-16_21h25.03.225,ratings,2022.1.1,Win32,60.08171113
1.83484,1.1999,-3.806317022,1.8339,0,106,106,125,1,347_27f0e47c2722605b950ccf9fa900f78271e4c3c874064ab5dacac160_circblurext.jpg,1.838948,0.3097172,circularblurringext,MILE27,2022-05-16_21h25.03.225,ratings,2022.1.1,Win32,60.08171113
0.097597872,1.4864,-3.620881065,2.1615,0,107,107,344,1,494_5c6c3b85a2734a43c24bfe337d42ffcc82b7347227804d01c784cef4_edges.jpg,0.03871468,0.0,edges,MILE27,2022-05-16_21h25.03.225,ratings,2022.1.1,Win32,60.08171113
-3.25000915,1.8071,-0.858861277,2.6854,0,108,108,241,1,411_adfd0d5782129756321ff671d0cfb712528504c66c863df11aabd1e7_bw.jpg,-3.392332,-1.369576,blackwhite,MILE27,2022-05-16_21h25.03.225,ratings,2022.1.1,Win32,60.08171113
0.858861277,3.426,-2.810818724,7.4794,0,109,109,78,1,242_85283f6935a89812ab229dcad9ba184529c9242ac3106d768ecf3ab3_orig.jpg,2.14918,-0.2949852,original,MILE27,2022-05-16_21h25.03.225,ratings,2022.1.1,Win32,60.08171113
-2.039795532,1.901,-1.581085532,3.5684,0,110,110,294,1,449_9c1e990a3480e5b51430fe76b0188e69ba2468fd6a866b88b2d0dd75_orig.jpg,0.095238,0.03174604,original,MILE27,2022-05-16_21h25.03.225,ratings,2022.1.1,Win32,60.08171113
0.761263404,1.552,1.093096171,2.4004,0,111,111,465,1,736_bb85db1bcda8eb34299aa5791ac65a0a7c343266eb2d6e6e328ec0e1_blur.jpg,3.650792,-0.03174604,blurring,MILE27,2022-05-16_21h25.03.225,ratings,2022.1.1,Win32,60.08171113
-0.048798936,3.5556,0.117117447,4.3359,0,112,112,171,1,365_45a719cabbc9aa308c4fcb30d529489c6966ac4073874af84f665c61_blur.jpg,2.507936,-1.968252,blurring,MILE27,2022-05-16_21h25.03.225,ratings,2022.1.1,Win32,60.08171113
-0.097597872,5.9272,-3.31832766,6.6879,0,113,113,85,1,243_beddb302dcb21071d88c8d2cab07002050d36b3001ef28f89389fa56_bw.jpg,-0.3450656,-0.2070392,blackwhite,MILE27,2022-05-16_21h25.03.225,ratings,2022.1.1,Win32,60.08171113
-2.947455745,1.577,-0.273274043,2.356,0,114,114,246,1,414_0187bdf7007109b487865b6a9d388997a6817acf052a6a7cdd5b39d9_orig.jpg,-2.786708,-1.133056,original,MILE27,2022-05-16_21h25.03.225,ratings,2022.1.1,Win32,60.08171113
-2.810818724,1.7702,-0.936939575,5.096,0,115,115,377,1,620_9674719009d75dcfeaed7f15932c43e1fd1af5e25d47b8aadd61efe2_circblurext.jpg,-0.561364,1.142084,circularblurringext,MILE27,2022-05-16_21h25.03.225,ratings,2022.1.1,Win32,60.08171113
0.868621064,4.3624,-1.405409362,5.1015,0,116,116,269,1,431_ab5a1dbbe9292ac7f74e276cdabcd372e2c1f852ff34bf7cc6646ef8_circblurext.jpg,3.102584,0.354334,circularblurringext,MILE27,2022-05-16_21h25.03.225,ratings,2022.1.1,Win32,60.08171113
1.190694043,1.9341,0.800302553,2.4176,0,117,117,339,1,492_a1a4d288d3bc486c83c3b6a835c42891989f5ba781633932298a7676_blur.jpg,3.406892,-0.44522,blurring,MILE27,2022-05-16_21h25.03.225,ratings,2022.1.1,Win32,60.08171113
1.132135319,1.6165,2.176432554,2.2587,0,118,118,540,1,1005_b980c0747d20935bc63cc27a9e05ce2ff5bae98f859872ec48edd7f5_orig.jpg,3.428572,-0.476192,original,MILE27,2022-05-16_21h25.03.225,ratings,2022.1.1,Win32,60.08171113
0.819822128,5.6934,-2.039795532,6.2134,0,119,119,483,1,759_95e1c46ed9a337414d5c8eada8fa8b9632e18751f5ce6ed587806e91_blur.jpg,2.126984,0.0,blurring,MILE27,2022-05-16_21h25.03.225,ratings,2022.1.1,Win32,60.08171113
-1.776281277,2.5014,2.088594469,1.9335,0,120,120,459,1,720_483c541c48959a597fcf44320941afaf8b7695105f90d65b5f6b30f2_blur.jpg,2.158732,-0.2539684,blurring,MILE27,2022-05-16_21h25.03.225,ratings,2022.1.1,Win32,60.08171113
-0.048798936,2.9678,-3.103612341,4.3358,0,121,121,396,1,683_a004ad18331da968da5debdd15e1447dd7748750af0bc6c57b844200_orig.jpg,-2.91956,2.466524,original,MILE27,2022-05-16_21h25.03.225,ratings,2022.1.1,Win32,60.08171113
1.493247447,2.0567,-3.015774256,2.6859,0,122,122,379,1,640_0ddb4981a5f5842ed5b4f7ef941be53779189df5e718b1fc5475ad80_bw.jpg,2.571428,-1.873016,blackwhite,MILE27,2022-05-16_21h25.03.225,ratings,2022.1.1,Win32,60.08171113
3.201210214,1.1668,2.371628299,1.8334,0,123,123,115,1,332_4d584229bdae2e1782f77f0e953e528f13c3dfa79b4b94736c0310fa_bw.jpg,3.157348,0.483092,blackwhite,MILE27,2022-05-16_21h25.03.225,ratings,2022.1.1,Win32,60.08171113
1.034537447,39.485,-0.975978724,40.1833,0,124,124,110,1,293_3dfdfafc0c6a54b2da7453750ac281f7718c0b3337b0a74c4563d6bd_edges.jpg,-2.574524,2.632596,edges,MILE27,2022-05-16_21h25.03.225,ratings,2022.1.1,Win32,60.08171113
-0.185435957,1.8625,-2.059315107,2.5777,0,125,125,214,1,394_8e3a0cb945144d53bd1ace04b6256237ed9dcbbd9cb83f8a4886b0e6_circblurint.jpg,-2.593884,2.651956,circularblurringint,MILE27,2022-05-16_21h25.03.225,ratings,2022.1.1,Win32,60.08171113
-0.253754468,2.6707,-0.029279362,2.1752,0,126,126,308,1,455_34a7d8167619d110206c369e3f7dce8a3f99db763a9d8e2b956501d3_edges.jpg,-2.526412,-0.3827896,edges,MILE27,2022-05-16_21h25.03.225,ratings,2022.1.1,Win32,60.08171113
0.10735766,3.0839,-0.361112128,4.0773,0,127,127,287,1,440_dc6413e2b65369ee2587f4d85621742fe4ca87392d0a8ad2ea7d94e3_circblurext.jpg,-3.016216,1.69404,circularblurringext,MILE27,2022-05-16_21h25.03.225,ratings,2022.1.1,Win32,60.08171113
0.009759787,2.6866,-0.839341702,3.2544,0,128,128,558,1,1022_cf035e583d41a856836f8b0ae314ecbe79dffd9e40ef6a08cc26028f_orig.jpg,-0.2516452,3.05846,original,MILE27,2022-05-16_21h25.03.225,ratings,2022.1.1,Win32,60.08171113
-0.078078298,1.8002,0.019519574,6.8278,0,129,129,92,1,258_d26019382777d2159a974a7654923e71598135ce2cd710cea1f92865_edges.jpg,3.497684,-0.61104,edges,MILE27,2022-05-16_21h25.03.225,ratings,2022.1.1,Win32,60.08171113
3.054813405,3.1885,0.946699362,4.141,0,130,130,280,1,440_9bf7e8609729bf888835168834da6c3ff30b75d0d4f36e2ee6918bcc_circblurint.jpg,-2.284164,2.710028,circularblurringint,MILE27,2022-05-16_21h25.03.225,ratings,2022.1.1,Win32,60.08171113
1.561565958,2.843,-1.054057022,3.5356,0,131,131,293,1,442_7449d79dae5d652af9b2429872cabdef938646ba024db2f431b3b28d_circblurext.jpg,1.619048,0.126984,circularblurringext,MILE27,2022-05-16_21h25.03.225,ratings,2022.1.1,Win32,60.08171113
1.122375532,6.3029,-1.034537447,6.9378,0,132,132,45,1,92_5d20d78a8e57e628c6930676473a4e0a485e715841efd6286c660020_blur.jpg,2.126984,0.0,blurring,MILE27,2022-05-16_21h25.03.225,ratings,2022.1.1,Win32,60.08171113
-0.068318511,2.2334,-4,4.1129,0,133,133,19,1,48_2cc936b2483ab2944c9158e163342b874ef6c1492fd8fca08c0e096e_bw.jpg,-1.264224,-0.779604,blackwhite,MILE27,2022-05-16_21h25.03.225,ratings,2022.1.1,Win32,60.08171113
1.620124681,1.2186,-1.990996596,1.662,0,134,134,567,1,1037_e2eb929a6de79a63ce6cfe5321fcb74a203b134e4094932d90b01d99_blur.jpg,2.651956,0.0,blurring,MILE27,2022-05-16_21h25.03.225,ratings,2022.1.1,Win32,60.08171113
-1.805560639,1.5937,-1.161414681,2.722,0,135,135,103,1,284_cdcbd54fc995081ac95c8b2c37a19cebb341f61a8eb268cee1623492_bw.jpg,-1.015872,2.095236,blackwhite,MILE27,2022-05-16_21h25.03.225,ratings,2022.1.1,Win32,60.08171113
-1.649404043,1.5913,-1.581085532,2.069,0,136,136,188,1,369_c99797771115d7627d4abe3415f814497288f91a7be1a04c17c776b9_edges.jpg,3.619824,-0.174216,edges,MILE27,2022-05-16_21h25.03.225,ratings,2022.1.1,Win32,60.08171113
1.063816809,3.6335,-3.894155107,4.3531,0,137,137,168,1,365_45a719cabbc9aa308c4fcb30d529489c6966ac4073874af84f665c61_orig.jpg,2.507936,-1.968252,original,MILE27,2022-05-16_21h25.03.225,ratings,2022.1.1,Win32,60.08171113
-3.162171065,1.8187,1.795800852,2.3788,0,138,138,495,1,824_b1d91cc824ce0d3d383d3147da88d3d6dbaf6be918bab79e3ec8f501_blur.jpg,-3.645176,-1.432784,blurring,MILE27,2022-05-16_21h25.03.225,ratings,2022.1.1,Win32,60.08171113
0.702704681,2.0644,-3.386646171,3.1387,0,139,139,265,1,431_ab5a1dbbe9292ac7f74e276cdabcd372e2c1f852ff34bf7cc6646ef8_bw.jpg,3.102584,0.354334,blackwhite,MILE27,2022-05-16_21h25.03.225,ratings,2022.1.1,Win32,60.08171113
0.185435957,3.8401,-0.087838085,4.4017,0,140,140,332,1,482_a1cd28915c5044c018195ab0fff10dcc95e385246b045a7cd4463ff7_edges.jpg,-3.361852,-1.555612,edges,MILE27,2022-05-16_21h25.03.225,ratings,2022.1.1,Win32,60.08171113
-1.493247447,2.9069,0.722224256,3.4678,0,141,141,333,1,482_a1cd28915c5044c018195ab0fff10dcc95e385246b045a7cd4463ff7_blur.jpg,-3.361852,-1.555612,blurring,MILE27,2022-05-16_21h25.03.225,ratings,2022.1.1,Win32,60.08171113
-0.761263404,10.0851,0.84910149,10.8466,0,142,142,193,1,379_eeaa6d9bf5a4ef205dc48bc505cf3a7f24ea86e99af9b371e03602a7_bw.jpg,-0.3926308,2.88936,blackwhite,MILE27,2022-05-16_21h25.03.225,ratings,2022.1.1,Win32,60.08171113
0.087838085,2.6714,1.903158511,3.3383,0,143,143,46,1,92_5d20d78a8e57e628c6930676473a4e0a485e715841efd6286c660020_circblurint.jpg,2.126984,0.0,circularblurringint,MILE27,2022-05-16_21h25.03.225,ratings,2022.1.1,Win32,60.08171113
-0.117117447,25.4378,0.907660213,31.3777,0,144,144,438,1,700_59cb565f134f1afd066d7b6d936c6511b7cb76de0e9cbb5ce15124ad_orig.jpg,0.0,0.0,original,MILE27,2022-05-16_21h25.03.225,ratings,2022.1.1,Win32,60.08171113
-0.322072979,5.5808,-0.644145958,8.7244,0,145,145,327,1,468_8b69b13120daebadd8a4a3166e1419f2404395cba231307a4efa9fde_blur.jpg,2.031744,0.2539684,blurring,MILE27,2022-05-16_21h25.03.225,ratings,2022.1.1,Win32,60.08171113
0.302553404,5.2701,4,4.269,0,146,146,328,1,468_8b69b13120daebadd8a4a3166e1419f2404395cba231307a4efa9fde_circblurint.jpg,2.031744,0.2539684,circularblurringint,MILE27,2022-05-16_21h25.03.225,ratings,2022.1.1,Win32,60.08171113
1.180934256,22.7547,-2.918176384,23.2549,0,147,147,383,1,640_0ddb4981a5f5842ed5b4f7ef941be53779189df5e718b1fc5475ad80_circblurext.jpg,2.571428,-1.873016,circularblurringext,MILE27,2022-05-16_21h25.03.225,ratings,2022.1.1,Win32,60.08171113
-0.156156596,1.8474,-2.674181703,3.9387,0,148,148,217,1,396_208259ea431d47bb7f3946213eb099834eb119756ce304ad473d4d9f_bw.jpg,2.857144,-0.3809524,blackwhite,MILE27,2022-05-16_21h25.03.225,ratings,2022.1.1,Win32,60.08171113
0.068318511,1.9841,0.146396809,2.5573,0,149,149,488,1,818_877aae033c31e3bbca4486321a5307f87cf53c576c546462d3daf194_edges.jpg,-1.277584,0.619436,edges,MILE27,2022-05-16_21h25.03.225,ratings,2022.1.1,Win32,60.08171113
0.985738511,1.9005,-2.127633618,2.5177,0,150,150,500,1,854_081a8409e4d6d10923b2dedcc16a3fca405fcd602e55a20d84cac69d_edges.jpg,3.088264,1.21538,edges,MILE27,2022-05-16_21h25.03.225,ratings,2022.1.1,Win32,60.08171113
-2.888897022,1.4844,0.907660213,2.2845,0,151,151,570,1,1039_d64da8480fc6e94dcdc513237d600570ae0b9fe48795ac6a8b2d29a7_orig.jpg,-2.507936,-1.142856,original,MILE27,2022-05-16_21h25.03.225,ratings,2022.1.1,Win32,60.08171113
-3.952713831,3.2371,3.786797448,5.1936,0,152,152,347,1,494_5c6c3b85a2734a43c24bfe337d42ffcc82b7347227804d01c784cef4_circblurext.jpg,0.03871468,0.0,circularblurringext,MILE27,2022-05-16_21h25.03.225,ratings,2022.1.1,Win32,60.08171113
-3.454964682,1.6214,1.044297234,2.2014,0,153,153,166,1,361_b5541309527dc3c2422f45a95ebb0ed32005e6fe10d0489a1ff1fbdc_circblurint.jpg,-3.987612,-0.2516452,circularblurringint,MILE27,2022-05-16_21h25.03.225,ratings,2022.1.1,Win32,60.08171113
-3.435445107,1.3505,1.639644256,1.7946,0,154,154,126,1,349_18d92ef5c21ca70a3dd237aad251594e1688bbe01d8cff37b89c46b8_orig.jpg,-2.74874,-1.258228,original,MILE27,2022-05-16_21h25.03.225,ratings,2022.1.1,Win32,60.08171113
-0.380631702,3.2972,-0.878380851,9.0508,0,155,155,365,1,508_a7a9519cdc7aad6844030f4e6cd96cffd1b9c49b71e20ea52789bda2_circblurext.jpg,-3.000388,-1.29694,circularblurringext,MILE27,2022-05-16_21h25.03.225,ratings,2022.1.1,Win32,60.08171113
-0.068318511,1.9404,-0.039039149,2.3508,0,156,156,469,1,741_2b218fb015e3da83db73cacdb52e61e0c2534c1fe255bb1c5c74d47f_bw.jpg,3.140096,0.448584,blackwhite,MILE27,2022-05-16_21h25.03.225,ratings,2022.1.1,Win32,60.08171113
-0.575827447,3.0925,-4,2.1933,0,157,157,468,1,741_2b218fb015e3da83db73cacdb52e61e0c2534c1fe255bb1c5c74d47f_orig.jpg,3.140096,0.448584,original,MILE27,2022-05-16_21h25.03.225,ratings,2022.1.1,Win32,60.08171113
1.044297234,4.3336,-3.796557235,4.8892,0,158,158,6,1,28_6318543b74eeb646a1735477ebc023fdc9ac3849bc0db1957c272a26_orig.jpg,2.811244,-0.74584,original,MILE27,2022-05-16_21h25.03.225,ratings,2022.1.1,Win32,60.08171113
-0.331832766,1.3365,-0.078078298,1.8102,0,159,159,441,1,700_59cb565f134f1afd066d7b6d936c6511b7cb76de0e9cbb5ce15124ad_blur.jpg,0.0,0.0,blurring,MILE27,2022-05-16_21h25.03.225,ratings,2022.1.1,Win32,60.08171113
-0.341592553,1.133,0.048798936,1.983,0,160,160,56,1,137_0e6a04243c0a42a5e2528a2d181255ca2a4b7bd6e7978c5c2059c69f_edges.jpg,-0.95238,2.095236,edges,MILE27,2022-05-16_21h25.03.225,ratings,2022.1.1,Win32,60.08171113
-1.893398724,2.3008,1.434688724,2.8851,0,161,161,346,1,494_5c6c3b85a2734a43c24bfe337d42ffcc82b7347227804d01c784cef4_circblurint.jpg,0.03871468,0.0,circularblurringint,MILE27,2022-05-16_21h25.03.225,ratings,2022.1.1,Win32,60.08171113
-1.629884469,1.4175,1.112615745,2.5691,0,162,162,454,1,716_2ab64478147184c4df720a52cf621875addc9007cb2967e4a9a88909_circblurint.jpg,2.428484,0.0,circularblurringint,MILE27,2022-05-16_21h25.03.225,ratings,2022.1.1,Win32,60.08171113
-0.507508936,1.8671,0.312313192,2.3332,0,163,163,375,1,620_9674719009d75dcfeaed7f15932c43e1fd1af5e25d47b8aadd61efe2_blur.jpg,-0.561364,1.142084,blurring,MILE27,2022-05-16_21h25.03.225,ratings,2022.1.1,Win32,60.08171113
1.259012554,1.5499,-3.035293831,2.4179,0,164,164,24,1,59_8568373b727f29d67ba6ce4c360dd918c8b08b13495fca56bdda5e82_orig.jpg,2.064896,0.505688,original,MILE27,2022-05-16_21h25.03.225,ratings,2022.1.1,Win32,60.08171113
-2.176432554,2.2611,1.639644256,3.018,0,165,165,436,1,694_f80f33613b268beffd6c044537cf3b44a84683d6e889bc37b8e9c34b_circblurint.jpg,-0.3785616,3.34728,circularblurringint,MILE27,2022-05-16_21h25.03.225,ratings,2022.1.1,Win32,60.08171113
-0.058558723,1.7837,-0.253754468,2.2844,0,166,166,320,1,460_e06b3af7ff2f2bfb5f9b6e3d5dc25b9aaa40b84823fac8fd934621bd_edges.jpg,-3.430992,-1.607468,edges,MILE27,2022-05-16_21h25.03.225,ratings,2022.1.1,Win32,60.08171113
-3.796557235,2.6056,1.112615745,4.3139,0,167,167,165,1,361_b5541309527dc3c2422f45a95ebb0ed32005e6fe10d0489a1ff1fbdc_blur.jpg,-3.987612,-0.2516452,blurring,MILE27,2022-05-16_21h25.03.225,ratings,2022.1.1,Win32,60.08171113
-0.10735766,2.4271,-0.380631702,3.4009,0,168,168,450,1,716_2ab64478147184c4df720a52cf621875addc9007cb2967e4a9a88909_orig.jpg,2.428484,0.0,original,MILE27,2022-05-16_21h25.03.225,ratings,2022.1.1,Win32,60.08171113
0.078078298,1.2872,-0.136637021,1.839,0,169,169,236,1,410_9633c4ff6e8888fcfca59a60ca86e9606d3e0736500a254101bdf295_edges.jpg,-0.3677892,2.981028,edges,MILE27,2022-05-16_21h25.03.225,ratings,2022.1.1,Win32,60.08171113
1.268772341,5.5966,-2.85961766,6.2039,0,170,170,202,1,380_34772591c787182a37724027eac6948ebc9d4064f6a601d23b923b8e_circblurint.jpg,2.222224,-0.063492,circularblurringint,MILE27,2022-05-16_21h25.03.225,ratings,2022.1.1,Win32,60.08171113
-0.039039149,1.3935,0.10735766,2.3279,0,171,171,350,1,498_305b74cdc4784d9d25e72724302e5402def70177ea31ae7e25fab66b_edges.jpg,3.04762,-0.444444,edges,MILE27,2022-05-16_21h25.03.225,ratings,2022.1.1,Win32,60.08171113
0.84910149,3.0955,-3.093852554,3.6469,0,172,172,10,1,28_6318543b74eeb646a1735477ebc023fdc9ac3849bc0db1957c272a26_circblurint.jpg,2.811244,-0.74584,circularblurringint,MILE27,2022-05-16_21h25.03.225,ratings,2022.1.1,Win32,60.08171113
-0.087838085,1.517,-0.165916383,2.1452,0,173,173,590,1,1228_557412d34d6a70b7c5d222e030aa485b351a4574e8ba1a3112d1d13d_edges.jpg,2.137444,0.703464,edges,MILE27,2022-05-16_21h25.03.225,ratings,2022.1.1,Win32,60.08171113
0.74174383,3.369,-3.747758299,4.8024,0,174,174,440,1,700_59cb565f134f1afd066d7b6d936c6511b7cb76de0e9cbb5ce15124ad_edges.jpg,0.0,0.0,edges,MILE27,2022-05-16_21h25.03.225,ratings,2022.1.1,Win32,60.08171113
0.331832766,4.1025,1.776281277,3.4688,0,175,175,417,1,692_7d7eaf20e6de8956f0fca7500ace97a8599aa8b605a7d690cdb28724_blur.jpg,-2.063492,-1.26984,blurring,MILE27,2022-05-16_21h25.03.225,ratings,2022.1.1,Win32,60.08171113
-3.845356171,1.4911,1.337090851,2.0343,0,176,176,535,1,986_a77edb21e78bc3a6aa7406517824596b3496ad6c657b6befb84cf370_bw.jpg,-3.906316,-0.60496,blackwhite,MILE27,2022-05-16_21h25.03.225,ratings,2022.1.1,Win32,60.08171113
0.927179787,1.9895,-2.596103405,2.485,0,177,177,43,1,92_5d20d78a8e57e628c6930676473a4e0a485e715841efd6286c660020_bw.jpg,2.126984,0.0,blackwhite,MILE27,2022-05-16_21h25.03.225,ratings,2022.1.1,Win32,60.08171113
-0.136637021,2.6753,-2.439946809,3.1713,0,178,178,88,1,243_beddb302dcb21071d88c8d2cab07002050d36b3001ef28f89389fa56_circblurint.jpg,-0.3450656,-0.2070392,circularblurringint,MILE27,2022-05-16_21h25.03.225,ratings,2022.1.1,Win32,60.08171113
0.019519574,2.2201,-0.263514255,6.5686,0,179,179,317,1,459_46e25de472bb056cb470716d30937415f7344bfc4354d6eb710d8c9f_circblurext.jpg,0.03174604,0.0,circularblurringext,MILE27,2022-05-16_21h25.03.225,ratings,2022.1.1,Win32,60.08171113
0.009759787,2.0488,-0.048798936,2.7681,0,180,180,597,1,1239_cee00457f4cfb76a407b12fd5ad714d440a4614c1e5467ee16caf618_blur.jpg,-0.03174604,0.190476,blurring,MILE27,2022-05-16_21h25.03.225,ratings,2022.1.1,Win32,60.08171113
1.180934256,5.0349,-3.659920214,5.6032,0,181,181,248,1,414_0187bdf7007109b487865b6a9d388997a6817acf052a6a7cdd5b39d9_edges.jpg,-2.786708,-1.133056,edges,MILE27,2022-05-16_21h25.03.225,ratings,2022.1.1,Win32,60.08171113
0.527028511,1.8676,-2.644902341,2.9004,0,182,182,231,1,407_578d31d32e806706dde2563213f130b90e621abfed0e47ecabd85d27_blur.jpg,3.5873,-0.444444,blurring,MILE27,2022-05-16_21h25.03.225,ratings,2022.1.1,Win32,60.08171113
0.204955532,1.803,-2.908416597,2.3067,0,183,183,148,1,354_e46c3ec6fb00773f64f2bcd212385f253c389808fe724b7cf8611051_circblurint.jpg,2.018292,0.0,circularblurringint,MILE27,2022-05-16_21h25.03.225,ratings,2022.1.1,Win32,60.08171113
1.59084532,1.8071,1.415169149,2.5374,0,184,184,586,1,1225_59c67a821456f2cce3e5acf66d7f00076bd02caffc984c1eb0df794e_circblurint.jpg,-0.444444,3.809524,circularblurringint,MILE27,2022-05-16_21h25.03.225,ratings,2022.1.1,Win32,60.08171113
0.214715319,2.2722,1.132135319,2.968,0,185,185,515,1,858_2f6539ee36aba48c38dc716d4f7c3ae93367d6ddf23ab41745d4172c_circblurext.jpg,0.0623832,0.176752,circularblurringext,MILE27,2022-05-16_21h25.03.225,ratings,2022.1.1,Win32,60.08171113
1.210213617,2.9754,-2.566824043,3.5561,0,186,186,301,1,453_54f106fd1d4b65fa4aa347407127fc30d49f791e81aee3a0bbe44489_bw.jpg,2.222224,0.0,blackwhite,MILE27,2022-05-16_21h25.03.225,ratings,2022.1.1,Win32,60.08171113
0.868621064,1.208,-2.96697532,1.7222,0,187,187,304,1,453_54f106fd1d4b65fa4aa347407127fc30d49f791e81aee3a0bbe44489_circblurint.jpg,2.222224,0.0,circularblurringint,MILE27,2022-05-16_21h25.03.225,ratings,2022.1.1,Win32,60.08171113
-0.692944894,2.8184,-0.195195745,3.2224,0,188,188,140,1,353_44e285740cb41818482ac93fc5fbd72c18029444a1d7506c9fc053e7_edges.jpg,-3.232676,-0.87108,edges,MILE27,2022-05-16_21h25.03.225,ratings,2022.1.1,Win32,60.08171113
1.073576596,1.6711,0.409911064,2.5513,0,189,189,145,1,354_e46c3ec6fb00773f64f2bcd212385f253c389808fe724b7cf8611051_bw.jpg,2.018292,0.0,blackwhite,MILE27,2022-05-16_21h25.03.225,ratings,2022.1.1,Win32,60.08171113
0.74174383,1.3671,-1.990996596,1.8794,0,190,190,564,1,1037_e2eb929a6de79a63ce6cfe5321fcb74a203b134e4094932d90b01d99_orig.jpg,2.651956,0.0,original,MILE27,2022-05-16_21h25.03.225,ratings,2022.1.1,Win32,60.08171113
0.956459149,3.5585,-3.171930852,4.4085,0,191,191,499,1,854_081a8409e4d6d10923b2dedcc16a3fca405fcd602e55a20d84cac69d_bw.jpg,3.088264,1.21538,blackwhite,MILE27,2022-05-16_21h25.03.225,ratings,2022.1.1,Win32,60.08171113
0.868621064,1.9253,0.478229575,2.8385,0,192,192,580,1,1061_665178b9cb0bc869cc2e2b68def4838db04e66f9531098fb75875a09_circblurint.jpg,0.3492064,-0.3174604,circularblurringint,MILE27,2022-05-16_21h25.03.225,ratings,2022.1.1,Win32,60.08171113
1.132135319,1.2702,-2.810818724,2.2099,0,193,193,279,1,440_9bf7e8609729bf888835168834da6c3ff30b75d0d4f36e2ee6918bcc_blur.jpg,-2.284164,2.710028,blurring,MILE27,2022-05-16_21h25.03.225,ratings,2022.1.1,Win32,60.08171113
0.751503617,1.3508,-2.439946809,2.0681,0,194,194,427,1,694_7a14b8ab7c564dcb0f628c4de7f6cb54e4c5f6601f774bf167641c37_bw.jpg,1.819588,0.116144,blackwhite,MILE27,2022-05-16_21h25.03.225,ratings,2022.1.1,Win32,60.08171113
0.985738511,1.2332,-2.869377448,1.842,0,195,195,426,1,694_7a14b8ab7c564dcb0f628c4de7f6cb54e4c5f6601f774bf167641c37_orig.jpg,1.819588,0.116144,original,MILE27,2022-05-16_21h25.03.225,ratings,2022.1.1,Win32,60.08171113
1.219973405,1.44,-2.410667447,2.2345,0,196,196,48,1,112_b6a4ce721c2e42943d7d8b168751d74cd2f372b1cd4fed5a4404faec_orig.jpg,2.107036,0.505688,original,MILE27,2022-05-16_21h25.03.225,ratings,2022.1.1,Win32,60.08171113
0.780782979,1.006,-2.693701277,1.5335,0,197,197,448,1,709_69c01dcde028a2a1a913f1a2a5026ae1748484f75c89217a040c6791_circblurint.jpg,1.432444,-0.01935732,circularblurringint,MILE27,2022-05-16_21h25.03.225,ratings,2022.1.1,Win32,60.08171113
1.02477766,0.8772,-2.654662128,3.502,0,198,198,149,1,354_e46c3ec6fb00773f64f2bcd212385f253c389808fe724b7cf8611051_circblurext.jpg,2.018292,0.0,circularblurringext,MILE27,2022-05-16_21h25.03.225,ratings,2022.1.1,Win32,60.08171113
1.259012554,1.9996,-0.126877234,2.6007,0,199,199,591,1,1228_557412d34d6a70b7c5d222e030aa485b351a4574e8ba1a3112d1d13d_blur.jpg,2.137444,0.703464,blurring,MILE27,2022-05-16_21h25.03.225,ratings,2022.1.1,Win32,60.08171113
1.034537447,2.2501,-3.171930852,2.8686,0,200,200,596,1,1239_cee00457f4cfb76a407b12fd5ad714d440a4614c1e5467ee16caf618_edges.jpg,-0.03174604,0.190476,edges,MILE27,2022-05-16_21h25.03.225,ratings,2022.1.1,Win32,60.08171113
0.927179787,2.4908,1.02477766,2.9247,0,201,201,329,1,468_8b69b13120daebadd8a4a3166e1419f2404395cba231307a4efa9fde_circblurext.jpg,2.031744,0.2539684,circularblurringext,MILE27,2022-05-16_21h25.03.225,ratings,2022.1.1,Win32,60.08171113
1.122375532,1.3019,0.936939575,2.0677,0,202,202,22,1,48_2cc936b2483ab2944c9158e163342b874ef6c1492fd8fca08c0e096e_circblurint.jpg,-1.264224,-0.779604,circularblurringint,MILE27,2022-05-16_21h25.03.225,ratings,2022.1.1,Win32,60.08171113
-3.542802767,1.6857,3.474484256,2.4175,0,203,203,90,1,258_d26019382777d2159a974a7654923e71598135ce2cd710cea1f92865_orig.jpg,3.497684,-0.61104,original,MILE27,2022-05-16_21h25.03.225,ratings,2022.1.1,Win32,60.08171113
-3.240249363,1.4661,1.532286596,3.0349,0,204,204,537,1,986_a77edb21e78bc3a6aa7406517824596b3496ad6c657b6befb84cf370_blur.jpg,-3.906316,-0.60496,blurring,MILE27,2022-05-16_21h25.03.225,ratings,2022.1.1,Win32,60.08171113
0.400151277,1.3493,-1.298051702,1.7717,0,205,205,545,1,1005_b980c0747d20935bc63cc27a9e05ce2ff5bae98f859872ec48edd7f5_circblurext.jpg,3.428572,-0.476192,circularblurringext,MILE27,2022-05-16_21h25.03.225,ratings,2022.1.1,Win32,60.08171113
2.147153192,2.9355,1.044297234,4.2697,0,206,206,585,1,1225_59c67a821456f2cce3e5acf66d7f00076bd02caffc984c1eb0df794e_blur.jpg,-0.444444,3.809524,blurring,MILE27,2022-05-16_21h25.03.225,ratings,2022.1.1,Win32,60.08171113
-2.488745745,1.5015,0.829581915,2.3026,0,207,207,574,1,1039_d64da8480fc6e94dcdc513237d600570ae0b9fe48795ac6a8b2d29a7_circblurint.jpg,-2.507936,-1.142856,circularblurringint,MILE27,2022-05-16_21h25.03.225,ratings,2022.1.1,Win32,60.08171113
0.204955532,4.25,0.058558723,4.7014,0,208,208,386,1,646_577760d718dab44c6f04d77408c5644a120065ce07a9503957d0850a_edges.jpg,-2.690668,2.61324,edges,MILE27,2022-05-16_21h25.03.225,ratings,2022.1.1,Win32,60.08171113
0.839341702,1.7227,-2.762019788,2.4129,0,209,209,9,1,28_6318543b74eeb646a1735477ebc023fdc9ac3849bc0db1957c272a26_blur.jpg,2.811244,-0.74584,blurring,MILE27,2022-05-16_21h25.03.225,ratings,2022.1.1,Win32,60.08171113
0.156156596,3.1607,-0.048798936,3.7569,0,210,210,446,1,709_69c01dcde028a2a1a913f1a2a5026ae1748484f75c89217a040c6791_edges.jpg,1.432444,-0.01935732,edges,MILE27,2022-05-16_21h25.03.225,ratings,2022.1.1,Win32,60.08171113
0.351352341,1.7865,0.068318511,2.3578,0,211,211,104,1,284_cdcbd54fc995081ac95c8b2c37a19cebb341f61a8eb268cee1623492_edges.jpg,-1.015872,2.095236,edges,MILE27,2022-05-16_21h25.03.225,ratings,2022.1.1,Win32,60.08171113
-3.855115958,2.8907,3.864875746,3.7214,0,212,212,433,1,694_f80f33613b268beffd6c044537cf3b44a84683d6e889bc37b8e9c34b_bw.jpg,-0.3785616,3.34728,blackwhite,MILE27,2022-05-16_21h25.03.225,ratings,2022.1.1,Win32,60.08171113
0.966218936,1.9768,-1.30781149,2.6732,0,213,213,57,1,137_0e6a04243c0a42a5e2528a2d181255ca2a4b7bd6e7978c5c2059c69f_blur.jpg,-0.95238,2.095236,blurring,MILE27,2022-05-16_21h25.03.225,ratings,2022.1.1,Win32,60.08171113
-0.409911064,2.9331,1.346850639,3.6412,0,214,214,345,1,494_5c6c3b85a2734a43c24bfe337d42ffcc82b7347227804d01c784cef4_blur.jpg,0.03871468,0.0,blurring,MILE27,2022-05-16_21h25.03.225,ratings,2022.1.1,Win32,60.08171113
-2.420427235,1.4869,1.259012554,2.1222,0,215,215,243,1,411_adfd0d5782129756321ff671d0cfb712528504c66c863df11aabd1e7_blur.jpg,-3.392332,-1.369576,blurring,MILE27,2022-05-16_21h25.03.225,ratings,2022.1.1,Win32,60.08171113
0.195195745,2.2004,-1.493247447,4.2301,0,216,216,442,1,700_59cb565f134f1afd066d7b6d936c6511b7cb76de0e9cbb5ce15124ad_circblurint.jpg,0.0,0.0,circularblurringint,MILE27,2022-05-16_21h25.03.225,ratings,2022.1.1,Win32,60.08171113
0.351352341,6.048,-0.048798936,6.6193,0,217,217,86,1,243_beddb302dcb21071d88c8d2cab07002050d36b3001ef28f89389fa56_edges.jpg,-0.3450656,-0.2070392,edges,MILE27,2022-05-16_21h25.03.225,ratings,2022.1.1,Win32,60.08171113
-0.527028511,4.8685,-1.385889788,5.3844,0,218,218,388,1,646_577760d718dab44c6f04d77408c5644a120065ce07a9503957d0850a_circblurint.jpg,-2.690668,2.61324,circularblurringint,MILE27,2022-05-16_21h25.03.225,ratings,2022.1.1,Win32,60.08171113
-2.293550001,1.5615,0.907660213,2.3996,0,219,219,240,1,411_adfd0d5782129756321ff671d0cfb712528504c66c863df11aabd1e7_orig.jpg,-3.392332,-1.369576,original,MILE27,2022-05-16_21h25.03.225,ratings,2022.1.1,Win32,60.08171113
-3.99175298,1.6897,3.786797448,2.5207,0,220,220,93,1,258_d26019382777d2159a974a7654923e71598135ce2cd710cea1f92865_blur.jpg,3.497684,-0.61104,blurring,MILE27,2022-05-16_21h25.03.225,ratings,2022.1.1,Win32,60.08171113
0.409911064,3.5717,0.17567617,4.6953,0,221,221,577,1,1061_665178b9cb0bc869cc2e2b68def4838db04e66f9531098fb75875a09_bw.jpg,0.3492064,-0.3174604,blackwhite,MILE27,2022-05-16_21h25.03.225,ratings,2022.1.1,Win32,60.08171113
-1.249252766,5.1139,0.897900426,4.305,0,222,222,196,1,379_eeaa6d9bf5a4ef205dc48bc505cf3a7f24ea86e99af9b371e03602a7_circblurint.jpg,-0.3926308,2.88936,circularblurringint,MILE27,2022-05-16_21h25.03.225,ratings,2022.1.1,Win32,60.08171113
-3.054813405,1.4457,1.054057022,2.2397,0,223,223,161,1,358_157f8ac929713531a15b1ecf115e7b659cb90e83d675251e368d165f_circblurext.jpg,-3.777776,-0.571428,circularblurringext,MILE27,2022-05-16_21h25.03.225,ratings,2022.1.1,Win32,60.08171113
0.195195745,5.7272,-0.048798936,6.276,0,224,224,368,1,616_05a637f5281666f53d4e2ef69351485fc21d629b37ee2006b2076eb6_edges.jpg,-2.380952,-0.832364,edges,MILE27,2022-05-16_21h25.03.225,ratings,2022.1.1,Win32,60.08171113
0.810062341,7.5917,0.74174383,8.8129,0,225,225,32,1,60_ad52063167538de24f94d7dfd04808cb94cf8f426c40871d2f126505_edges.jpg,2.158732,0.0,edges,MILE27,2022-05-16_21h25.03.225,ratings,2022.1.1,Win32,60.08171113
1.298051702,1.2085,1.190694043,1.6323,0,226,226,447,1,709_69c01dcde028a2a1a913f1a2a5026ae1748484f75c89217a040c6791_blur.jpg,1.432444,-0.01935732,blurring,MILE27,2022-05-16_21h25.03.225,ratings,2022.1.1,Win32,60.08171113
3.279288512,1.2108,1.805560639,1.7622,0,227,227,276,1,440_9bf7e8609729bf888835168834da6c3ff30b75d0d4f36e2ee6918bcc_orig.jpg,-2.284164,2.710028,original,MILE27,2022-05-16_21h25.03.225,ratings,2022.1.1,Win32,60.08171113
-3.81607681,1.4225,3.933194256,2.5074,0,228,228,432,1,694_f80f33613b268beffd6c044537cf3b44a84683d6e889bc37b8e9c34b_orig.jpg,-0.3785616,3.34728,original,MILE27,2022-05-16_21h25.03.225,ratings,2022.1.1,Win32,60.08171113
0.087838085,1.5588,-0.468469787,2.0823,0,229,229,170,1,365_45a719cabbc9aa308c4fcb30d529489c6966ac4073874af84f665c61_edges.jpg,2.507936,-1.968252,edges,MILE27,2022-05-16_21h25.03.225,ratings,2022.1.1,Win32,60.08171113
0.204955532,1.3943,-0.907660213,1.974,0,230,230,84,1,243_beddb302dcb21071d88c8d2cab07002050d36b3001ef28f89389fa56_orig.jpg,-0.3450656,-0.2070392,original,MILE27,2022-05-16_21h25.03.225,ratings,2022.1.1,Win32,60.08171113
0.478229575,1.9994,-1.571325745,2.7176,0,231,231,581,1,1061_665178b9cb0bc869cc2e2b68def4838db04e66f9531098fb75875a09_circblurext.jpg,0.3492064,-0.3174604,circularblurringext,MILE27,2022-05-16_21h25.03.225,ratings,2022.1.1,Win32,60.08171113
1.561565958,1.6701,-1.581085532,2.1246,0,232,232,124,1,347_27f0e47c2722605b950ccf9fa900f78271e4c3c874064ab5dacac160_circblurint.jpg,1.838948,0.3097172,circularblurringint,MILE27,2022-05-16_21h25.03.225,ratings,2022.1.1,Win32,60.08171113
0.126877234,2.5069,-0.273274043,2.9483,0,233,233,96,1,267_792043debad81ce271cec5b3c3bd9d264efc13f362bec9c7a3f72fe7_orig.jpg,1.980616,0.2107036,original,MILE27,2022-05-16_21h25.03.225,ratings,2022.1.1,Win32,60.08171113
1.629884469,1.6764,-2.849857873,2.8663,0,234,234,408,1,687_e3b018945792a574962235c88c553b7c318c75eec2596478e8a7b877_orig.jpg,3.63918,-0.42586,original,MILE27,2022-05-16_21h25.03.225,ratings,2022.1.1,Win32,60.08171113
0.74174383,3.2125,-3.025534043,3.6307,0,235,235,5,1,13_771f4fcf0a212d25d6a78565e7f34cc5ddd823e7afbdc77ef063326e_circblurext.jpg,2.190476,0.0,circularblurringext,MILE27,2022-05-16_21h25.03.225,ratings,2022.1.1,Win32,60.08171113
0.722224256,1.3056,-2.459466384,1.983,0,236,236,38,1,82_43f4d5aec7c2e5bd495473f6708a0f2d47c9fe34e1fe9436646cb036_edges.jpg,2.022756,0.505688,edges,MILE27,2022-05-16_21h25.03.225,ratings,2022.1.1,Win32,60.08171113
-1.298051702,2.2141,0.263514255,4.0841,0,237,237,490,1,818_877aae033c31e3bbca4486321a5307f87cf53c576c546462d3daf194_circblurint.jpg,-1.277584,0.619436,circularblurringint,MILE27,2022-05-16_21h25.03.225,ratings,2022.1.1,Win32,60.08171113
0.692944894,1.2577,-1.512767022,2.1949,0,238,238,174,1,368_6507b94d7d0199f14efd3706db30c9c44b96085f84e9cc7792e3e0ae_orig.jpg,1.959544,0.400336,original,MILE27,2022-05-16_21h25.03.225,ratings,2022.1.1,Win32,60.08171113
0.897900426,1.3081,-0.614866596,1.8729,0,239,239,144,1,354_e46c3ec6fb00773f64f2bcd212385f253c389808fe724b7cf8611051_orig.jpg,2.018292,0.0,original,MILE27,2022-05-16_21h25.03.225,ratings,2022.1.1,Win32,60.08171113
0.595347021,2.723,0.653905745,3.2235,0,240,240,516,1,860_05c4e22518a30d3d2add458a8fc6488f87b9b02dd8e385ded939f025_orig.jpg,1.955092,0.3097172,original,MILE27,2022-05-16_21h25.03.225,ratings,2022.1.1,Win32,60.08171113
3.415925533,1.2292,0.868621064,1.7087,0,241,241,281,1,440_9bf7e8609729bf888835168834da6c3ff30b75d0d4f36e2ee6918bcc_circblurext.jpg,-2.284164,2.710028,circularblurringext,MILE27,2022-05-16_21h25.03.225,ratings,2022.1.1,Win32,60.08171113
1.30781149,1.4257,-1.610364894,2.2955,0,242,242,527,1,877_cab3efed0c9ff4552037df6c1ea4ea9713f915c94592a14dbf2799da_circblurext.jpg,3.174604,0.3174604,circularblurringext,MILE27,2022-05-16_21h25.03.225,ratings,2022.1.1,Win32,60.08171113
1.463968085,2.681,-2.156912979,4.2968,0,243,243,394,1,663_aaf52107fe3a86392530d88b34e86f9d2b6820714cad98d1e3c2cb67_circblurint.jpg,2.58766,0.0918696,circularblurringint,MILE27,2022-05-16_21h25.03.225,ratings,2022.1.1,Win32,60.08171113
-0.975978724,1.2624,1.288291915,2.2781,0,244,244,385,1,646_577760d718dab44c6f04d77408c5644a120065ce07a9503957d0850a_bw.jpg,-2.690668,2.61324,blackwhite,MILE27,2022-05-16_21h25.03.225,ratings,2022.1.1,Win32,60.08171113
-3.903914895,2.3376,3.806317022,3.3596,0,245,245,434,1,694_f80f33613b268beffd6c044537cf3b44a84683d6e889bc37b8e9c34b_edges.jpg,-0.3785616,3.34728,edges,MILE27,2022-05-16_21h25.03.225,ratings,2022.1.1,Win32,60.08171113
-0.74174383,3.2109,-0.956459149,4.0961,0,246,246,572,1,1039_d64da8480fc6e94dcdc513237d600570ae0b9fe48795ac6a8b2d29a7_edges.jpg,-2.507936,-1.142856,edges,MILE27,2022-05-16_21h25.03.225,ratings,2022.1.1,Win32,60.08171113
0.068318511,2.4509,-2.371628299,4.0589,0,247,247,443,1,700_59cb565f134f1afd066d7b6d936c6511b7cb76de0e9cbb5ce15124ad_circblurext.jpg,0.0,0.0,circularblurringext,MILE27,2022-05-16_21h25.03.225,ratings,2022.1.1,Win32,60.08171113
0.156156596,1.3608,-2.557064256,4.8809,0,248,248,286,1,440_dc6413e2b65369ee2587f4d85621742fe4ca87392d0a8ad2ea7d94e3_circblurint.jpg,-3.016216,1.69404,circularblurringint,MILE27,2022-05-16_21h25.03.225,ratings,2022.1.1,Win32,60.08171113
1.30781149,2.0391,0.673425319,3.7907,0,249,249,415,1,692_7d7eaf20e6de8956f0fca7500ace97a8599aa8b605a7d690cdb28724_bw.jpg,-2.063492,-1.26984,blackwhite,MILE27,2022-05-16_21h25.03.225,ratings,2022.1.1,Win32,60.08171113
-0.117117447,1.542,0.136637021,2.0894,0,250,250,257,1,416_5eb54976bb41ce2a6d129ef985f792e716f010fb9b69b15f50f5d2db_circblurext.jpg,-2.58766,2.602972,circularblurringext,MILE27,2022-05-16_21h25.03.225,ratings,2022.1.1,Win32,60.08171113
0.400151277,1.4881,-0.722224256,6.728,0,251,251,507,1,855_66d893451dfd1e7615132071c6c8a82b02dc2b37781cd89400883b26_blur.jpg,2.69484,0.2143624,blurring,MILE27,2022-05-16_21h25.03.225,ratings,2022.1.1,Win32,60.08171113
0.165916383,1.2889,0.243994681,1.8288,0,252,252,99,1,267_792043debad81ce271cec5b3c3bd9d264efc13f362bec9c7a3f72fe7_blur.jpg,1.980616,0.2107036,blurring,MILE27,2022-05-16_21h25.03.225,ratings,2022.1.1,Win32,60.08171113
-1.20045383,2.1455,-0.84910149,3.491,0,253,253,143,1,353_44e285740cb41818482ac93fc5fbd72c18029444a1d7506c9fc053e7_circblurext.jpg,-3.232676,-0.87108,circularblurringext,MILE27,2022-05-16_21h25.03.225,ratings,2022.1.1,Win32,60.08171113
-1.629884469,1.5791,0.478229575,2.2151,0,254,254,142,1,353_44e285740cb41818482ac93fc5fbd72c18029444a1d7506c9fc053e7_circblurint.jpg,-3.232676,-0.87108,circularblurringint,MILE27,2022-05-16_21h25.03.225,ratings,2022.1.1,Win32,60.08171113
-0.136637021,2.0226,1.37613,2.63,0,255,255,420,1,692_e3e3bf88684fbbcdb9849a4147f9e2fcd39b0f083554a829aca4e9fa_orig.jpg,-0.44522,3.135888,original,MILE27,2022-05-16_21h25.03.225,ratings,2022.1.1,Win32,60.08171113
-2.078834681,1.7562,1.424928937,2.5128,0,256,256,496,1,824_b1d91cc824ce0d3d383d3147da88d3d6dbaf6be918bab79e3ec8f501_circblurint.jpg,-3.645176,-1.432784,circularblurringint,MILE27,2022-05-16_21h25.03.225,ratings,2022.1.1,Win32,60.08171113
0.683185107,1.4811,-1.971477022,2.0533,0,257,257,52,1,112_b6a4ce721c2e42943d7d8b168751d74cd2f372b1cd4fed5a4404faec_circblurint.jpg,2.107036,0.505688,circularblurringint,MILE27,2022-05-16_21h25.03.225,ratings,2022.1.1,Win32,60.08171113
-0.253754468,2.6206,-0.224475106,3.2481,0,258,258,234,1,410_9633c4ff6e8888fcfca59a60ca86e9606d3e0736500a254101bdf295_orig.jpg,-0.3677892,2.981028,original,MILE27,2022-05-16_21h25.03.225,ratings,2022.1.1,Win32,60.08171113
0.253754468,1.696,0.058558723,2.2053,0,259,259,252,1,416_5eb54976bb41ce2a6d129ef985f792e716f010fb9b69b15f50f5d2db_orig.jpg,-2.58766,2.602972,original,MILE27,2022-05-16_21h25.03.225,ratings,2022.1.1,Win32,60.08171113
-3.259768937,1.7724,0.722224256,2.6053,0,260,260,319,1,460_e06b3af7ff2f2bfb5f9b6e3d5dc25b9aaa40b84823fac8fd934621bd_bw.jpg,-3.430992,-1.607468,blackwhite,MILE27,2022-05-16_21h25.03.225,ratings,2022.1.1,Win32,60.08171113
-0.165916383,1.6989,-0.078078298,2.2467,0,261,261,31,1,60_ad52063167538de24f94d7dfd04808cb94cf8f426c40871d2f126505_bw.jpg,2.158732,0.0,blackwhite,MILE27,2022-05-16_21h25.03.225,ratings,2022.1.1,Win32,60.08171113
1.424928937,6.4277,-3.630640852,7.2448,0,262,262,409,1,687_e3b018945792a574962235c88c553b7c318c75eec2596478e8a7b877_bw.jpg,3.63918,-0.42586,blackwhite,MILE27,2022-05-16_21h25.03.225,ratings,2022.1.1,Win32,60.08171113
3.53304298,1.4093,1.951957447,1.9773,0,263,263,587,1,1225_59c67a821456f2cce3e5acf66d7f00076bd02caffc984c1eb0df794e_circblurext.jpg,-0.444444,3.809524,circularblurringext,MILE27,2022-05-16_21h25.03.225,ratings,2022.1.1,Win32,60.08171113
-2.566824043,1.4237,-0.009759787,2.0412,0,264,264,251,1,414_0187bdf7007109b487865b6a9d388997a6817acf052a6a7cdd5b39d9_circblurext.jpg,-2.786708,-1.133056,circularblurringext,MILE27,2022-05-16_21h25.03.225,ratings,2022.1.1,Win32,60.08171113
-0.253754468,2.599,-0.341592553,3.0107,0,265,265,254,1,416_5eb54976bb41ce2a6d129ef985f792e716f010fb9b69b15f50f5d2db_edges.jpg,-2.58766,2.602972,edges,MILE27,2022-05-16_21h25.03.225,ratings,2022.1.1,Win32,60.08171113
-0.927179787,2.3391,-0.858861277,2.7829,0,266,266,369,1,616_05a637f5281666f53d4e2ef69351485fc21d629b37ee2006b2076eb6_blur.jpg,-2.380952,-0.832364,blurring,MILE27,2022-05-16_21h25.03.225,ratings,2022.1.1,Win32,60.08171113
-0.068318511,10.4054,-1.298051702,10.9698,0,267,267,424,1,692_e3e3bf88684fbbcdb9849a4147f9e2fcd39b0f083554a829aca4e9fa_circblurint.jpg,-0.44522,3.135888,circularblurringint,MILE27,2022-05-16_21h25.03.225,ratings,2022.1.1,Win32,60.08171113
1.239492979,2.0038,-0.966218936,2.4952,0,268,268,177,1,368_6507b94d7d0199f14efd3706db30c9c44b96085f84e9cc7792e3e0ae_blur.jpg,1.959544,0.400336,blurring,MILE27,2022-05-16_21h25.03.225,ratings,2022.1.1,Win32,60.08171113
-0.390391489,1.5133,-0.810062341,2.0571,0,269,269,484,1,759_95e1c46ed9a337414d5c8eada8fa8b9632e18751f5ce6ed587806e91_circblurint.jpg,2.126984,0.0,circularblurringint,MILE27,2022-05-16_21h25.03.225,ratings,2022.1.1,Win32,60.08171113
-3.14265149,1.9605,-1.102855958,3.2504,0,270,270,135,1,349_8809a67686d34844c915d7700e2ea72ad1c02ae232ae0d3cc0e458d4_blur.jpg,-3.619048,-0.2857144,blurring,MILE27,2022-05-16_21h25.03.225,ratings,2022.1.1,Win32,60.08171113
0.243994681,2.127,-1.385889788,2.5951,0,271,271,421,1,692_e3e3bf88684fbbcdb9849a4147f9e2fcd39b0f083554a829aca4e9fa_bw.jpg,-0.44522,3.135888,blackwhite,MILE27,2022-05-16_21h25.03.225,ratings,2022.1.1,Win32,60.08171113
0.292793617,2.4625,1.151654894,3.2863,0,272,272,310,1,455_34a7d8167619d110206c369e3f7dce8a3f99db763a9d8e2b956501d3_circblurint.jpg,-2.526412,-0.3827896,circularblurringint,MILE27,2022-05-16_21h25.03.225,ratings,2022.1.1,Win32,60.08171113
0.243994681,2.1492,0.810062341,3.415,0,273,273,460,1,720_483c541c48959a597fcf44320941afaf8b7695105f90d65b5f6b30f2_circblurint.jpg,2.158732,-0.2539684,circularblurringint,MILE27,2022-05-16_21h25.03.225,ratings,2022.1.1,Win32,60.08171113
-2.127633618,16.8621,1.210213617,17.5454,0,274,274,476,1,748_e519892faa7c772a0afaf9eeff36cf0e411574027ab3d9aa4947a048_edges.jpg,-1.813112,3.307432,edges,MILE27,2022-05-16_21h25.03.225,ratings,2022.1.1,Win32,60.08171113
-0.56606766,1.3626,-0.478229575,1.9419,0,275,275,482,1,759_95e1c46ed9a337414d5c8eada8fa8b9632e18751f5ce6ed587806e91_edges.jpg,2.126984,0.0,edges,MILE27,2022-05-16_21h25.03.225,ratings,2022.1.1,Win32,60.08171113
0.370871915,11.8299,-0.771023192,12.267,0,276,276,263,1,416_8a1f874e0057d67a4e6955865ba88b2d8ce2c8b4469589307687a723_circblurext.jpg,-1.753336,3.088264,circularblurringext,MILE27,2022-05-16_21h25.03.225,ratings,2022.1.1,Win32,60.08171113
1.005258085,7.4829,-1.180934256,8.0221,0,277,277,16,1,39_2fafccaa4dc69045a05845f59c6b3cd2edcf7e0e0c108b24e553afe0_circblurint.jpg,2.022756,0.463548,circularblurringint,MILE27,2022-05-16_21h25.03.225,ratings,2022.1.1,Win32,60.08171113
-3.337847235,0.9959,1.229733192,1.6721,0,278,278,330,1,482_a1cd28915c5044c018195ab0fff10dcc95e385246b045a7cd4463ff7_orig.jpg,-3.361852,-1.555612,original,MILE27,2022-05-16_21h25.03.225,ratings,2022.1.1,Win32,60.08171113
-0.712464468,15.3403,-0.663665532,16.2571,0,279,279,42,1,92_5d20d78a8e57e628c6930676473a4e0a485e715841efd6286c660020_orig.jpg,2.126984,0.0,original,MILE27,2022-05-16_21h25.03.225,ratings,2022.1.1,Win32,60.08171113
0.663665532,2.4898,-1.317571277,3.1808,0,280,280,425,1,692_e3e3bf88684fbbcdb9849a4147f9e2fcd39b0f083554a829aca4e9fa_circblurext.jpg,-0.44522,3.135888,circularblurringext,MILE27,2022-05-16_21h25.03.225,ratings,2022.1.1,Win32,60.08171113
0.780782979,1.5119,-1.219973405,1.9559,0,281,281,544,1,1005_b980c0747d20935bc63cc27a9e05ce2ff5bae98f859872ec48edd7f5_circblurint.jpg,3.428572,-0.476192,circularblurringint,MILE27,2022-05-16_21h25.03.225,ratings,2022.1.1,Win32,60.08171113
1.054057022,6.9427,0.078078298,7.6356,0,282,282,362,1,508_a7a9519cdc7aad6844030f4e6cd96cffd1b9c49b71e20ea52789bda2_edges.jpg,-3.000388,-1.29694,edges,MILE27,2022-05-16_21h25.03.225,ratings,2022.1.1,Win32,60.08171113
0.341592553,2.3948,0.302553404,2.9982,0,283,283,303,1,453_54f106fd1d4b65fa4aa347407127fc30d49f791e81aee3a0bbe44489_blur.jpg,2.222224,0.0,blurring,MILE27,2022-05-16_21h25.03.225,ratings,2022.1.1,Win32,60.08171113
-2.820578511,1.333,0.702704681,13.5768,0,284,284,492,1,824_b1d91cc824ce0d3d383d3147da88d3d6dbaf6be918bab79e3ec8f501_orig.jpg,-3.645176,-1.432784,original,MILE27,2022-05-16_21h25.03.225,ratings,2022.1.1,Win32,60.08171113
0.165916383,1.593,-0.185435957,2.1127,0,285,285,356,1,500_3b520c7f352afa1a9f8c07e56cc0588cdc04d25ff6e7b602b5e280cb_edges.jpg,-0.8328,3.11766,edges,MILE27,2022-05-16_21h25.03.225,ratings,2022.1.1,Win32,60.08171113
0.780782979,1.6609,-3.376886384,2.273,0,286,286,186,1,369_c99797771115d7627d4abe3415f814497288f91a7be1a04c17c776b9_orig.jpg,3.619824,-0.174216,original,MILE27,2022-05-16_21h25.03.225,ratings,2022.1.1,Win32,60.08171113
0.17567617,1.337,0.341592553,1.8605,0,287,287,128,1,349_18d92ef5c21ca70a3dd237aad251594e1688bbe01d8cff37b89c46b8_edges.jpg,-2.74874,-1.258228,edges,MILE27,2022-05-16_21h25.03.225,ratings,2022.1.1,Win32,60.08171113
0.91742,1.8378,-1.463968085,2.521,0,288,288,105,1,284_cdcbd54fc995081ac95c8b2c37a19cebb341f61a8eb268cee1623492_blur.jpg,-1.015872,2.095236,blurring,MILE27,2022-05-16_21h25.03.225,ratings,2022.1.1,Win32,60.08171113
0.546548085,8.5801,-1.688443192,9.1318,0,289,289,283,1,440_dc6413e2b65369ee2587f4d85621742fe4ca87392d0a8ad2ea7d94e3_bw.jpg,-3.016216,1.69404,blackwhite,MILE27,2022-05-16_21h25.03.225,ratings,2022.1.1,Win32,60.08171113
0.136637021,4.3422,2.342348937,5.125,0,290,290,583,1,1225_59c67a821456f2cce3e5acf66d7f00076bd02caffc984c1eb0df794e_bw.jpg,-0.444444,3.809524,blackwhite,MILE27,2022-05-16_21h25.03.225,ratings,2022.1.1,Win32,60.08171113
-0.048798936,1.7485,-0.429430638,2.3443,0,291,291,216,1,396_208259ea431d47bb7f3946213eb099834eb119756ce304ad473d4d9f_orig.jpg,2.857144,-0.3809524,original,MILE27,2022-05-16_21h25.03.225,ratings,2022.1.1,Win32,60.08171113
0.273274043,10.5516,1.151654894,12.8079,0,292,292,384,1,646_577760d718dab44c6f04d77408c5644a120065ce07a9503957d0850a_orig.jpg,-2.690668,2.61324,original,MILE27,2022-05-16_21h25.03.225,ratings,2022.1.1,Win32,60.08171113
0.595347021,1.3602,0.692944894,1.9485,0,293,293,253,1,416_5eb54976bb41ce2a6d129ef985f792e716f010fb9b69b15f50f5d2db_bw.jpg,-2.58766,2.602972,blackwhite,MILE27,2022-05-16_21h25.03.225,ratings,2022.1.1,Win32,60.08171113
-0.419670851,1.7564,0.448950213,2.2899,0,294,294,376,1,620_9674719009d75dcfeaed7f15932c43e1fd1af5e25d47b8aadd61efe2_circblurint.jpg,-0.561364,1.142084,circularblurringint,MILE27,2022-05-16_21h25.03.225,ratings,2022.1.1,Win32,60.08171113
1.20045383,4.506,-3.669680001,5.5359,0,295,295,72,1,236_f645730e1eb06155418c9a571329cc7fa320654fcaaedf1048b5cc11_orig.jpg,2.253968,0.0,original,MILE27,2022-05-16_21h25.03.225,ratings,2022.1.1,Win32,60.08171113
1.298051702,1.1028,-3.581841916,1.6134,0,296,296,36,1,82_43f4d5aec7c2e5bd495473f6708a0f2d47c9fe34e1fe9436646cb036_orig.jpg,2.022756,0.505688,original,MILE27,2022-05-16_21h25.03.225,ratings,2022.1.1,Win32,60.08171113
0.614866596,1.6297,-2.557064256,2.1896,0,297,297,410,1,687_e3b018945792a574962235c88c553b7c318c75eec2596478e8a7b877_edges.jpg,3.63918,-0.42586,edges,MILE27,2022-05-16_21h25.03.225,ratings,2022.1.1,Win32,60.08171113
-0.17567617,3.1343,-0.029279362,3.7078,0,298,298,224,1,403_57ac47f43882fc031a6067b1a388c0b2cbe8708dcbd2ff1019932eff_edges.jpg,-3.333332,-1.396824,edges,MILE27,2022-05-16_21h25.03.225,ratings,2022.1.1,Win32,60.08171113
1.073576596,6.4397,-1.444448511,7.144,0,299,299,336,1,492_a1a4d288d3bc486c83c3b6a835c42891989f5ba781633932298a7676_orig.jpg,3.406892,-0.44522,original,MILE27,2022-05-16_21h25.03.225,ratings,2022.1.1,Win32,60.08171113
0.936939575,1.6395,-1.415169149,4.1931,0,300,300,313,1,459_46e25de472bb056cb470716d30937415f7344bfc4354d6eb710d8c9f_bw.jpg,0.03174604,0.0,blackwhite,MILE27,2022-05-16_21h25.03.225,ratings,2022.1.1,Win32,60.08171113
3.093852554,2.1133,0.91742,3.0739,0,301,301,77,1,236_f645730e1eb06155418c9a571329cc7fa320654fcaaedf1048b5cc11_circblurext.jpg,2.253968,0.0,circularblurringext,MILE27,2022-05-16_21h25.03.225,ratings,2022.1.1,Win32,60.08171113
0.761263404,23.5064,-2.127633618,24.4578,0,302,302,569,1,1037_e2eb929a6de79a63ce6cfe5321fcb74a203b134e4094932d90b01d99_circblurext.jpg,2.651956,0.0,circularblurringext,MILE27,2022-05-16_21h25.03.225,ratings,2022.1.1,Win32,60.08171113
3.767277873,1.6998,1.65916383,2.3507,0,303,303,117,1,332_4d584229bdae2e1782f77f0e953e528f13c3dfa79b4b94736c0310fa_blur.jpg,3.157348,0.483092,blurring,MILE27,2022-05-16_21h25.03.225,ratings,2022.1.1,Win32,60.08171113
0.966218936,1.5577,0.819822128,2.0336,0,304,304,428,1,694_7a14b8ab7c564dcb0f628c4de7f6cb54e4c5f6601f774bf167641c37_edges.jpg,1.819588,0.116144,edges,MILE27,2022-05-16_21h25.03.225,ratings,2022.1.1,Win32,60.08171113
0.702704681,1.4399,-0.907660213,2.0599,0,305,305,199,1,380_34772591c787182a37724027eac6948ebc9d4064f6a601d23b923b8e_bw.jpg,2.222224,-0.063492,blackwhite,MILE27,2022-05-16_21h25.03.225,ratings,2022.1.1,Win32,60.08171113
1.161414681,2.0892,-1.65916383,2.6727,0,306,306,183,1,369_98db62a1bdabfd1bc551180da6658005b461585cd21614633cf76470_blur.jpg,2.190476,-0.03174604,blurring,MILE27,2022-05-16_21h25.03.225,ratings,2022.1.1,Win32,60.08171113
-3.620881065,2.2114,0.156156596,3.3789,0,307,307,141,1,353_44e285740cb41818482ac93fc5fbd72c18029444a1d7506c9fc053e7_blur.jpg,-3.232676,-0.87108,blurring,MILE27,2022-05-16_21h25.03.225,ratings,2022.1.1,Win32,60.08171113
-0.204955532,7.7098,0.487989362,8.2437,0,308,308,555,1,1014_a5c212ca979d482cf94c2db7697aba75620391a64b030ab7ad2bbecf_blur.jpg,-3.174604,-1.374372,blurring,MILE27,2022-05-16_21h25.03.225,ratings,2022.1.1,Win32,60.08171113
1.366370213,1.4319,-2.430187022,1.8333,0,309,309,503,1,854_081a8409e4d6d10923b2dedcc16a3fca405fcd602e55a20d84cac69d_circblurext.jpg,3.088264,1.21538,circularblurringext,MILE27,2022-05-16_21h25.03.225,ratings,2022.1.1,Win32,60.08171113
-0.468469787,2.468,-1.493247447,2.9854,0,310,310,192,1,379_eeaa6d9bf5a4ef205dc48bc505cf3a7f24ea86e99af9b371e03602a7_orig.jpg,-0.3926308,2.88936,original,MILE27,2022-05-16_21h25.03.225,ratings,2022.1.1,Win32,60.08171113
-2.088594469,2.8511,0.322072979,3.4021,0,311,311,405,1,686_6745b57686ad5d1bd6cf3e7ed5bc0243a154f8939e88e30321dfcfdb_blur.jpg,-1.523808,3.650792,blurring,MILE27,2022-05-16_21h25.03.225,ratings,2022.1.1,Win32,60.08171113
1.112615745,12.8652,-2.244751064,13.4115,0,312,312,227,1,403_57ac47f43882fc031a6067b1a388c0b2cbe8708dcbd2ff1019932eff_circblurext.jpg,-3.333332,-1.396824,circularblurringext,MILE27,2022-05-16_21h25.03.225,ratings,2022.1.1,Win32,60.08171113
0.253754468,29.4952,-1.366370213,30.0678,0,313,313,173,1,365_45a719cabbc9aa308c4fcb30d529489c6966ac4073874af84f665c61_circblurext.jpg,2.507936,-1.968252,circularblurringext,MILE27,2022-05-16_21h25.03.225,ratings,2022.1.1,Win32,60.08171113
-0.790542766,56.771,-2.439946809,58.8171,0,314,314,414,1,692_7d7eaf20e6de8956f0fca7500ace97a8599aa8b605a7d690cdb28724_orig.jpg,-2.063492,-1.26984,original,MILE27,2022-05-16_21h25.03.225,ratings,2022.1.1,Win32,60.08171113
0.527028511,1.2959,-2.976735107,1.908,0,315,315,267,1,431_ab5a1dbbe9292ac7f74e276cdabcd372e2c1f852ff34bf7cc6646ef8_blur.jpg,3.102584,0.354334,blurring,MILE27,2022-05-16_21h25.03.225,ratings,2022.1.1,Win32,60.08171113
-0.078078298,15.1938,-3.933194256,16.463,0,316,316,289,1,442_7449d79dae5d652af9b2429872cabdef938646ba024db2f431b3b28d_bw.jpg,1.619048,0.126984,blackwhite,MILE27,2022-05-16_21h25.03.225,ratings,2022.1.1,Win32,60.08171113
1.112615745,4.3931,-2.85961766,5.2237,0,317,317,504,1,855_66d893451dfd1e7615132071c6c8a82b02dc2b37781cd89400883b26_orig.jpg,2.69484,0.2143624,original,MILE27,2022-05-16_21h25.03.225,ratings,2022.1.1,Win32,60.08171113
-2.918176384,1.5174,1.512767022,2.151,0,318,318,575,1,1039_d64da8480fc6e94dcdc513237d600570ae0b9fe48795ac6a8b2d29a7_circblurext.jpg,-2.507936,-1.142856,circularblurringext,MILE27,2022-05-16_21h25.03.225,ratings,2022.1.1,Win32,60.08171113
-3.503763618,1.3003,0.263514255,1.9661,0,319,319,389,1,646_577760d718dab44c6f04d77408c5644a120065ce07a9503957d0850a_circblurext.jpg,-2.690668,2.61324,circularblurringext,MILE27,2022-05-16_21h25.03.225,ratings,2022.1.1,Win32,60.08171113
0.995498298,3.0684,-3.230489575,3.5187,0,320,320,568,1,1037_e2eb929a6de79a63ce6cfe5321fcb74a203b134e4094932d90b01d99_circblurint.jpg,2.651956,0.0,circularblurringint,MILE27,2022-05-16_21h25.03.225,ratings,2022.1.1,Win32,60.08171113
0.146396809,22.2178,-3.103612341,22.9545,0,321,321,226,1,403_57ac47f43882fc031a6067b1a388c0b2cbe8708dcbd2ff1019932eff_circblurint.jpg,-3.333332,-1.396824,circularblurringint,MILE27,2022-05-16_21h25.03.225,ratings,2022.1.1,Win32,60.08171113
0.243994681,2.1345,-3.855115958,2.8019,0,322,322,315,1,459_46e25de472bb056cb470716d30937415f7344bfc4354d6eb710d8c9f_blur.jpg,0.03174604,0.0,blurring,MILE27,2022-05-16_21h25.03.225,ratings,2022.1.1,Win32,60.08171113
-3.88439532,1.2559,-1.610364894,2.2775,0,323,323,130,1,349_18d92ef5c21ca70a3dd237aad251594e1688bbe01d8cff37b89c46b8_circblurint.jpg,-2.74874,-1.258228,circularblurringint,MILE27,2022-05-16_21h25.03.225,ratings,2022.1.1,Win32,60.08171113
0.302553404,2.4288,-2.293550001,3.0344,0,324,324,107,1,284_cdcbd54fc995081ac95c8b2c37a19cebb341f61a8eb268cee1623492_circblurext.jpg,-1.015872,2.095236,circularblurringext,MILE27,2022-05-16_21h25.03.225,ratings,2022.1.1,Win32,60.08171113
-0.029279362,14.9144,-3.103612341,16.3303,0,325,325,514,1,858_2f6539ee36aba48c38dc716d4f7c3ae93367d6ddf23ab41745d4172c_circblurint.jpg,0.0623832,0.176752,circularblurringint,MILE27,2022-05-16_21h25.03.225,ratings,2022.1.1,Win32,60.08171113
-3.786797448,1.556,1.30781149,2.218,0,326,326,322,1,460_e06b3af7ff2f2bfb5f9b6e3d5dc25b9aaa40b84823fac8fd934621bd_circblurint.jpg,-3.430992,-1.607468,circularblurringint,MILE27,2022-05-16_21h25.03.225,ratings,2022.1.1,Win32,60.08171113
-3.620881065,1.3352,1.02477766,1.9833,0,327,327,242,1,411_adfd0d5782129756321ff671d0cfb712528504c66c863df11aabd1e7_edges.jpg,-3.392332,-1.369576,edges,MILE27,2022-05-16_21h25.03.225,ratings,2022.1.1,Win32,60.08171113
0.156156596,1.3327,-1.912918298,2.4604,0,328,328,418,1,692_7d7eaf20e6de8956f0fca7500ace97a8599aa8b605a7d690cdb28724_circblurint.jpg,-2.063492,-1.26984,circularblurringint,MILE27,2022-05-16_21h25.03.225,ratings,2022.1.1,Win32,60.08171113
1.219973405,15.4738,-3.07433298,16.1299,0,329,329,485,1,759_95e1c46ed9a337414d5c8eada8fa8b9632e18751f5ce6ed587806e91_circblurext.jpg,2.126984,0.0,circularblurringext,MILE27,2022-05-16_21h25.03.225,ratings,2022.1.1,Win32,60.08171113
0.039039149,2.6594,-2.693701277,3.2848,0,330,330,158,1,358_157f8ac929713531a15b1ecf115e7b659cb90e83d675251e368d165f_edges.jpg,-3.777776,-0.571428,edges,MILE27,2022-05-16_21h25.03.225,ratings,2022.1.1,Win32,60.08171113
0.146396809,7.1167,-1.083336383,7.7555,0,331,331,363,1,508_a7a9519cdc7aad6844030f4e6cd96cffd1b9c49b71e20ea52789bda2_blur.jpg,-3.000388,-1.29694,blurring,MILE27,2022-05-16_21h25.03.225,ratings,2022.1.1,Win32,60.08171113
1.015017873,18.9069,-2.722980639,19.4486,0,332,332,120,1,347_27f0e47c2722605b950ccf9fa900f78271e4c3c874064ab5dacac160_orig.jpg,1.838948,0.3097172,original,MILE27,2022-05-16_21h25.03.225,ratings,2022.1.1,Win32,60.08171113
-3.289048299,4.9532,0.556307872,9.3137,0,333,333,334,1,482_a1cd28915c5044c018195ab0fff10dcc95e385246b045a7cd4463ff7_circblurint.jpg,-3.361852,-1.555612,circularblurringint,MILE27,2022-05-16_21h25.03.225,ratings,2022.1.1,Win32,60.08171113
0.790542766,2.1676,-2.918176384,3.1818,0,334,334,470,1,741_2b218fb015e3da83db73cacdb52e61e0c2534c1fe255bb1c5c74d47f_edges.jpg,3.140096,0.448584,edges,MILE27,2022-05-16_21h25.03.225,ratings,2022.1.1,Win32,60.08171113
1.249252766,15.6035,-3.376886384,16.4464,0,335,335,35,1,60_ad52063167538de24f94d7dfd04808cb94cf8f426c40871d2f126505_circblurext.jpg,2.158732,0.0,circularblurringext,MILE27,2022-05-16_21h25.03.225,ratings,2022.1.1,Win32,60.08171113
-2.244751064,14.728,0.839341702,15.6324,0,336,336,407,1,686_6745b57686ad5d1bd6cf3e7ed5bc0243a154f8939e88e30321dfcfdb_circblurext.jpg,-1.523808,3.650792,circularblurringext,MILE27,2022-05-16_21h25.03.225,ratings,2022.1.1,Win32,60.08171113
0.10735766,8.7895,-2.976735107,9.411,0,337,337,551,1,1010_06d15f44b979c086561137000ec070ba4cd479856f92840a7850b2bf_circblurext.jpg,0.189786,-0.189786,circularblurringext,MILE27,2022-05-16_21h25.03.225,ratings,2022.1.1,Win32,60.08171113
1.102855958,1.3109,-3.464724469,1.8508,0,338,338,37,1,82_43f4d5aec7c2e5bd495473f6708a0f2d47c9fe34e1fe9436646cb036_bw.jpg,2.022756,0.505688,blackwhite,MILE27,2022-05-16_21h25.03.225,ratings,2022.1.1,Win32,60.08171113
0.936939575,28.0134,-2.918176384,28.939,0,339,339,80,1,242_85283f6935a89812ab229dcad9ba184529c9242ac3106d768ecf3ab3_edges.jpg,2.14918,-0.2949852,edges,MILE27,2022-05-16_21h25.03.225,ratings,2022.1.1,Win32,60.08171113
1.346850639,4.9478,-3.289048299,5.699,0,340,340,34,1,60_ad52063167538de24f94d7dfd04808cb94cf8f426c40871d2f126505_circblurint.jpg,2.158732,0.0,circularblurringint,MILE27,2022-05-16_21h25.03.225,ratings,2022.1.1,Win32,60.08171113
1.37613,1.5503,-2.947455745,2.0785,0,341,341,184,1,369_98db62a1bdabfd1bc551180da6658005b461585cd21614633cf76470_circblurint.jpg,2.190476,-0.03174604,circularblurringint,MILE27,2022-05-16_21h25.03.225,ratings,2022.1.1,Win32,60.08171113
0.243994681,29.796,-3.962473618,31.576,0,342,342,18,1,48_2cc936b2483ab2944c9158e163342b874ef6c1492fd8fca08c0e096e_orig.jpg,-1.264224,-0.779604,original,MILE27,2022-05-16_21h25.03.225,ratings,2022.1.1,Win32,60.08171113
0.653905745,4.5607,-2.96697532,5.2578,0,343,343,14,1,39_2fafccaa4dc69045a05845f59c6b3cd2edcf7e0e0c108b24e553afe0_edges.jpg,2.022756,0.463548,edges,MILE27,2022-05-16_21h25.03.225,ratings,2022.1.1,Win32,60.08171113
0.136637021,1.2666,0.039039149,1.9007,0,344,344,260,1,416_8a1f874e0057d67a4e6955865ba88b2d8ce2c8b4469589307687a723_edges.jpg,-1.753336,3.088264,edges,MILE27,2022-05-16_21h25.03.225,ratings,2022.1.1,Win32,60.08171113
0.019519574,3.5853,-3.220729788,4.3366,0,345,345,589,1,1228_557412d34d6a70b7c5d222e030aa485b351a4574e8ba1a3112d1d13d_bw.jpg,2.137444,0.703464,blackwhite,MILE27,2022-05-16_21h25.03.225,ratings,2022.1.1,Win32,60.08171113
-0.078078298,39.1712,-2.781539362,52.4675,0,346,346,201,1,380_34772591c787182a37724027eac6948ebc9d4064f6a601d23b923b8e_blur.jpg,2.222224,-0.063492,blurring,MILE27,2022-05-16_21h25.03.225,ratings,2022.1.1,Win32,60.08171113
-0.10735766,13.7034,-3.777037661,16.8375,0,347,347,557,1,1014_a5c212ca979d482cf94c2db7697aba75620391a64b030ab7ad2bbecf_circblurext.jpg,-3.174604,-1.374372,circularblurringext,MILE27,2022-05-16_21h25.03.225,ratings,2022.1.1,Win32,60.08171113
0.927179787,1.2496,-3.737998512,2.4341,0,348,348,180,1,369_98db62a1bdabfd1bc551180da6658005b461585cd21614633cf76470_orig.jpg,2.190476,-0.03174604,original,MILE27,2022-05-16_21h25.03.225,ratings,2022.1.1,Win32,60.08171113
-3.825836597,1.2494,2.342348937,1.8097,0,349,349,479,1,748_e519892faa7c772a0afaf9eeff36cf0e411574027ab3d9aa4947a048_circblurext.jpg,-1.813112,3.307432,circularblurringext,MILE27,2022-05-16_21h25.03.225,ratings,2022.1.1,Win32,60.08171113
-0.009759787,2.7506,-1.600605107,3.9358,0,350,350,87,1,243_beddb302dcb21071d88c8d2cab07002050d36b3001ef28f89389fa56_blur.jpg,-0.3450656,-0.2070392,blurring,MILE27,2022-05-16_21h25.03.225,ratings,2022.1.1,Win32,60.08171113
-2.381388086,1.7416,1.346850639,2.4517,0,351,351,318,1,460_e06b3af7ff2f2bfb5f9b6e3d5dc25b9aaa40b84823fac8fd934621bd_orig.jpg,-3.430992,-1.607468,original,MILE27,2022-05-16_21h25.03.225,ratings,2022.1.1,Win32,60.08171113
0.165916383,4.8802,1.180934256,5.8588,0,352,352,324,1,468_8b69b13120daebadd8a4a3166e1419f2404395cba231307a4efa9fde_orig.jpg,2.031744,0.2539684,original,MILE27,2022-05-16_21h25.03.225,ratings,2022.1.1,Win32,60.08171113
0.966218936,2.6445,-1.83484,3.2508,0,353,353,15,1,39_2fafccaa4dc69045a05845f59c6b3cd2edcf7e0e0c108b24e553afe0_blur.jpg,2.022756,0.463548,blurring,MILE27,2022-05-16_21h25.03.225,ratings,2022.1.1,Win32,60.08171113
0.888140639,1.5345,-3.698959363,2.1544,0,354,354,506,1,855_66d893451dfd1e7615132071c6c8a82b02dc2b37781cd89400883b26_edges.jpg,2.69484,0.2143624,edges,MILE27,2022-05-16_21h25.03.225,ratings,2022.1.1,Win32,60.08171113
-2.098354256,1.0834,1.385889788,1.703,0,355,355,156,1,358_157f8ac929713531a15b1ecf115e7b659cb90e83d675251e368d165f_orig.jpg,-3.777776,-0.571428,original,MILE27,2022-05-16_21h25.03.225,ratings,2022.1.1,Win32,60.08171113
0.029279362,25.9527,0.126877234,26.6869,0,356,356,272,1,434_ba36d91204d7e578001f6a545d7501e65d209554def5a3c8b7583825_edges.jpg,-3.523808,1.428572,edges,MILE27,2022-05-16_21h25.03.225,ratings,2022.1.1,Win32,60.08171113
-1.883638937,2.3087,0.692944894,3.0825,0,357,357,463,1,736_bb85db1bcda8eb34299aa5791ac65a0a7c343266eb2d6e6e328ec0e1_bw.jpg,3.650792,-0.03174604,blackwhite,MILE27,2022-05-16_21h25.03.225,ratings,2022.1.1,Win32,60.08171113
-0.039039149,2.5967,-0.019519574,3.3685,0,358,358,487,1,818_877aae033c31e3bbca4486321a5307f87cf53c576c546462d3daf194_bw.jpg,-1.277584,0.619436,blackwhite,MILE27,2022-05-16_21h25.03.225,ratings,2022.1.1,Win32,60.08171113
0.966218936,1.3643,-2.996254682,1.8966,0,359,359,79,1,242_85283f6935a89812ab229dcad9ba184529c9242ac3106d768ecf3ab3_bw.jpg,2.14918,-0.2949852,blackwhite,MILE27,2022-05-16_21h25.03.225,ratings,2022.1.1,Win32,60.08171113
-0.078078298,1.6813,0.351352341,2.1485,0,360,360,554,1,1014_a5c212ca979d482cf94c2db7697aba75620391a64b030ab7ad2bbecf_edges.jpg,-3.174604,-1.374372,edges,MILE27,2022-05-16_21h25.03.225,ratings,2022.1.1,Win32,60.08171113
0.029279362,10.6489,-3.923434469,11.4635,0,361,361,225,1,403_57ac47f43882fc031a6067b1a388c0b2cbe8708dcbd2ff1019932eff_blur.jpg,-3.333332,-1.396824,blurring,MILE27,2022-05-16_21h25.03.225,ratings,2022.1.1,Win32,60.08171113
-2.742500213,1.3702,1.141895107,1.9976,0,362,362,136,1,349_8809a67686d34844c915d7700e2ea72ad1c02ae232ae0d3cc0e458d4_circblurint.jpg,-3.619048,-0.2857144,circularblurringint,MILE27,2022-05-16_21h25.03.225,ratings,2022.1.1,Win32,60.08171113
-0.029279362,2.5409,0.136637021,3.6608,0,363,363,54,1,137_0e6a04243c0a42a5e2528a2d181255ca2a4b7bd6e7978c5c2059c69f_orig.jpg,-0.95238,2.095236,original,MILE27,2022-05-16_21h25.03.225,ratings,2022.1.1,Win32,60.08171113
-2.098354256,1.1961,0.888140639,1.7874,0,364,364,538,1,986_a77edb21e78bc3a6aa7406517824596b3496ad6c657b6befb84cf370_circblurint.jpg,-3.906316,-0.60496,circularblurringint,MILE27,2022-05-16_21h25.03.225,ratings,2022.1.1,Win32,60.08171113
0.927179787,6.1489,-3.542802767,6.8645,0,365,365,61,1,156_08e8cf8f04630e9213e610580de73f51572d1d589878648700bae4dc_bw.jpg,2.222224,0.0,blackwhite,MILE27,2022-05-16_21h25.03.225,ratings,2022.1.1,Win32,60.08171113
-3.31832766,1.9741,0.878380851,2.6977,0,366,366,321,1,460_e06b3af7ff2f2bfb5f9b6e3d5dc25b9aaa40b84823fac8fd934621bd_blur.jpg,-3.430992,-1.607468,blurring,MILE27,2022-05-16_21h25.03.225,ratings,2022.1.1,Win32,60.08171113
-2.039795532,4.2553,0.663665532,5.0522,0,367,367,123,1,347_27f0e47c2722605b950ccf9fa900f78271e4c3c874064ab5dacac160_blur.jpg,1.838948,0.3097172,blurring,MILE27,2022-05-16_21h25.03.225,ratings,2022.1.1,Win32,60.08171113
-0.195195745,3.0546,-0.117117447,3.5216,0,368,368,595,1,1239_cee00457f4cfb76a407b12fd5ad714d440a4614c1e5467ee16caf618_bw.jpg,-0.03174604,0.190476,blackwhite,MILE27,2022-05-16_21h25.03.225,ratings,2022.1.1,Win32,60.08171113
0.292793617,1.362,-2.947455745,2.0056,0,369,369,391,1,663_aaf52107fe3a86392530d88b34e86f9d2b6820714cad98d1e3c2cb67_bw.jpg,2.58766,0.0918696,blackwhite,MILE27,2022-05-16_21h25.03.225,ratings,2022.1.1,Win32,60.08171113
-0.019519574,1.315,0.019519574,1.7556,0,370,370,164,1,361_b5541309527dc3c2422f45a95ebb0ed32005e6fe10d0489a1ff1fbdc_edges.jpg,-3.987612,-0.2516452,edges,MILE27,2022-05-16_21h25.03.225,ratings,2022.1.1,Win32,60.08171113
0.692944894,12.3831,-2.50826532,13.2131,0,371,371,211,1,394_8e3a0cb945144d53bd1ace04b6256237ed9dcbbd9cb83f8a4886b0e6_bw.jpg,-2.593884,2.651956,blackwhite,MILE27,2022-05-16_21h25.03.225,ratings,2022.1.1,Win32,60.08171113
-2.537544682,1.1335,0.595347021,1.6154,0,372,372,159,1,358_157f8ac929713531a15b1ecf115e7b659cb90e83d675251e368d165f_blur.jpg,-3.777776,-0.571428,blurring,MILE27,2022-05-16_21h25.03.225,ratings,2022.1.1,Win32,60.08171113
0.683185107,1.5301,-2.79129915,2.1062,0,373,373,83,1,242_85283f6935a89812ab229dcad9ba184529c9242ac3106d768ecf3ab3_circblurext.jpg,2.14918,-0.2949852,circularblurringext,MILE27,2022-05-16_21h25.03.225,ratings,2022.1.1,Win32,60.08171113
0.380631702,3.974,-0.556307872,5.6256,0,374,374,359,1,500_3b520c7f352afa1a9f8c07e56cc0588cdc04d25ff6e7b602b5e280cb_circblurext.jpg,-0.8328,3.11766,circularblurringext,MILE27,2022-05-16_21h25.03.225,ratings,2022.1.1,Win32,60.08171113
0.273274043,1.6946,0.810062341,2.5126,0,375,375,250,1,414_0187bdf7007109b487865b6a9d388997a6817acf052a6a7cdd5b39d9_circblurint.jpg,-2.786708,-1.133056,circularblurringint,MILE27,2022-05-16_21h25.03.225,ratings,2022.1.1,Win32,60.08171113
-0.029279362,13.593,-0.029279362,14.1807,0,376,376,512,1,858_2f6539ee36aba48c38dc716d4f7c3ae93367d6ddf23ab41745d4172c_edges.jpg,0.0623832,0.176752,edges,MILE27,2022-05-16_21h25.03.225,ratings,2022.1.1,Win32,60.08171113
1.59084532,1.294,-3.123131916,1.8504,0,377,377,181,1,369_98db62a1bdabfd1bc551180da6658005b461585cd21614633cf76470_bw.jpg,2.190476,-0.03174604,blackwhite,MILE27,2022-05-16_21h25.03.225,ratings,2022.1.1,Win32,60.08171113
0.780782979,1.1456,-1.94219766,1.6377,0,378,378,473,1,741_2b218fb015e3da83db73cacdb52e61e0c2534c1fe255bb1c5c74d47f_circblurext.jpg,3.140096,0.448584,circularblurringext,MILE27,2022-05-16_21h25.03.225,ratings,2022.1.1,Win32,60.08171113
1.073576596,38.8947,-2.908416597,43.5891,0,379,379,501,1,854_081a8409e4d6d10923b2dedcc16a3fca405fcd602e55a20d84cac69d_blur.jpg,3.088264,1.21538,blurring,MILE27,2022-05-16_21h25.03.225,ratings,2022.1.1,Win32,60.08171113
1.20045383,4.4801,-2.644902341,5.0465,0,380,380,517,1,860_05c4e22518a30d3d2add458a8fc6488f87b9b02dd8e385ded939f025_bw.jpg,1.955092,0.3097172,blackwhite,MILE27,2022-05-16_21h25.03.225,ratings,2022.1.1,Win32,60.08171113
0.45871,4.9592,-0.243994681,5.523,0,381,381,513,1,858_2f6539ee36aba48c38dc716d4f7c3ae93367d6ddf23ab41745d4172c_blur.jpg,0.0623832,0.176752,blurring,MILE27,2022-05-16_21h25.03.225,ratings,2022.1.1,Win32,60.08171113
0.351352341,7.8756,0.527028511,8.6017,0,382,382,221,1,396_208259ea431d47bb7f3946213eb099834eb119756ce304ad473d4d9f_circblurext.jpg,2.857144,-0.3809524,circularblurringext,MILE27,2022-05-16_21h25.03.225,ratings,2022.1.1,Win32,60.08171113
0.361112128,2.5407,-0.28303383,3.4381,0,383,383,122,1,347_27f0e47c2722605b950ccf9fa900f78271e4c3c874064ab5dacac160_edges.jpg,1.838948,0.3097172,edges,MILE27,2022-05-16_21h25.03.225,ratings,2022.1.1,Win32,60.08171113
0.390391489,1.3242,-0.322072979,2.2498,0,384,384,98,1,267_792043debad81ce271cec5b3c3bd9d264efc13f362bec9c7a3f72fe7_edges.jpg,1.980616,0.2107036,edges,MILE27,2022-05-16_21h25.03.225,ratings,2022.1.1,Win32,60.08171113
0.195195745,7.5496,-2.722980639,49.1992,0,385,385,109,1,293_3dfdfafc0c6a54b2da7453750ac281f7718c0b3337b0a74c4563d6bd_bw.jpg,-2.574524,2.632596,blackwhite,MILE27,2022-05-16_21h25.03.225,ratings,2022.1.1,Win32,60.08171113
-2.937695958,1.6387,0.692944894,2.2588,0,386,386,247,1,414_0187bdf7007109b487865b6a9d388997a6817acf052a6a7cdd5b39d9_bw.jpg,-2.786708,-1.133056,blackwhite,MILE27,2022-05-16_21h25.03.225,ratings,2022.1.1,Win32,60.08171113
0.683185107,1.4087,-2.283790213,1.8604,0,387,387,505,1,855_66d893451dfd1e7615132071c6c8a82b02dc2b37781cd89400883b26_bw.jpg,2.69484,0.2143624,blackwhite,MILE27,2022-05-16_21h25.03.225,ratings,2022.1.1,Win32,60.08171113
0.868621064,1.6959,-2.830338299,2.1471,0,388,388,471,1,741_2b218fb015e3da83db73cacdb52e61e0c2534c1fe255bb1c5c74d47f_blur.jpg,3.140096,0.448584,blurring,MILE27,2022-05-16_21h25.03.225,ratings,2022.1.1,Win32,60.08171113
-0.068318511,4.1186,-0.302553404,4.8089,0,389,389,195,1,379_eeaa6d9bf5a4ef205dc48bc505cf3a7f24ea86e99af9b371e03602a7_blur.jpg,-0.3926308,2.88936,blurring,MILE27,2022-05-16_21h25.03.225,ratings,2022.1.1,Win32,60.08171113
-0.400151277,4.6862,-0.253754468,5.4531,0,390,390,562,1,1022_cf035e583d41a856836f8b0ae314ecbe79dffd9e40ef6a08cc26028f_circblurint.jpg,-0.2516452,3.05846,circularblurringint,MILE27,2022-05-16_21h25.03.225,ratings,2022.1.1,Win32,60.08171113
1.298051702,3.6338,-2.732740426,4.1277,0,391,391,502,1,854_081a8409e4d6d10923b2dedcc16a3fca405fcd602e55a20d84cac69d_circblurint.jpg,3.088264,1.21538,circularblurringint,MILE27,2022-05-16_21h25.03.225,ratings,2022.1.1,Win32,60.08171113
0.136637021,4.7749,-0.28303383,5.3711,0,392,392,342,1,494_5c6c3b85a2734a43c24bfe337d42ffcc82b7347227804d01c784cef4_orig.jpg,0.03871468,0.0,original,MILE27,2022-05-16_21h25.03.225,ratings,2022.1.1,Win32,60.08171113
-2.420427235,3.8609,0.644145958,4.4818,0,393,393,244,1,411_adfd0d5782129756321ff671d0cfb712528504c66c863df11aabd1e7_circblurint.jpg,-3.392332,-1.369576,circularblurringint,MILE27,2022-05-16_21h25.03.225,ratings,2022.1.1,Win32,60.08171113
0.009759787,7.3296,2.381388086,7.9221,0,394,394,582,1,1225_59c67a821456f2cce3e5acf66d7f00076bd02caffc984c1eb0df794e_orig.jpg,-0.444444,3.809524,original,MILE27,2022-05-16_21h25.03.225,ratings,2022.1.1,Win32,60.08171113
-0.087838085,1.1866,0.400151277,2.2174,0,395,395,290,1,442_7449d79dae5d652af9b2429872cabdef938646ba024db2f431b3b28d_edges.jpg,1.619048,0.126984,edges,MILE27,2022-05-16_21h25.03.225,ratings,2022.1.1,Win32,60.08171113
-0.322072979,1.846,0.136637021,2.4777,0,396,396,194,1,379_eeaa6d9bf5a4ef205dc48bc505cf3a7f24ea86e99af9b371e03602a7_edges.jpg,-0.3926308,2.88936,edges,MILE27,2022-05-16_21h25.03.225,ratings,2022.1.1,Win32,60.08171113
-0.058558723,5.1306,-0.019519574,5.7864,0,397,397,552,1,1014_a5c212ca979d482cf94c2db7697aba75620391a64b030ab7ad2bbecf_orig.jpg,-3.174604,-1.374372,original,MILE27,2022-05-16_21h25.03.225,ratings,2022.1.1,Win32,60.08171113
-0.17567617,1.5527,-0.322072979,2.4368,0,398,398,89,1,243_beddb302dcb21071d88c8d2cab07002050d36b3001ef28f89389fa56_circblurext.jpg,-0.3450656,-0.2070392,circularblurringext,MILE27,2022-05-16_21h25.03.225,ratings,2022.1.1,Win32,60.08171113
-0.10735766,1.6388,-0.409911064,3.271,0,399,399,525,1,877_cab3efed0c9ff4552037df6c1ea4ea9713f915c94592a14dbf2799da_blur.jpg,3.174604,0.3174604,blurring,MILE27,2022-05-16_21h25.03.225,ratings,2022.1.1,Win32,60.08171113
-0.429430638,1.2885,-0.243994681,1.8683,0,400,400,399,1,683_a004ad18331da968da5debdd15e1447dd7748750af0bc6c57b844200_blur.jpg,-2.91956,2.466524,blurring,MILE27,2022-05-16_21h25.03.225,ratings,2022.1.1,Win32,60.08171113
0.10735766,1.3832,-0.224475106,2.1841,0,401,401,530,1,915_dc9fd40a3b5d64a180833a7bac86e7556c24f681f473fe255e41f936_edges.jpg,-3.09294,-0.918696,edges,MILE27,2022-05-16_21h25.03.225,ratings,2022.1.1,Win32,60.08171113
0.810062341,1.951,-3.494003831,2.7514,0,402,402,547,1,1010_06d15f44b979c086561137000ec070ba4cd479856f92840a7850b2bf_bw.jpg,0.189786,-0.189786,blackwhite,MILE27,2022-05-16_21h25.03.225,ratings,2022.1.1,Win32,60.08171113
0.91742,11.0056,-3.845356171,11.7052,0,403,403,189,1,369_c99797771115d7627d4abe3415f814497288f91a7be1a04c17c776b9_blur.jpg,3.619824,-0.174216,blurring,MILE27,2022-05-16_21h25.03.225,ratings,2022.1.1,Win32,60.08171113
-0.078078298,1.2491,-0.068318511,2.0948,0,404,404,305,1,453_54f106fd1d4b65fa4aa347407127fc30d49f791e81aee3a0bbe44489_circblurext.jpg,2.222224,0.0,circularblurringext,MILE27,2022-05-16_21h25.03.225,ratings,2022.1.1,Win32,60.08171113
0.224475106,7.9054,-3.220729788,8.6063,0,405,405,256,1,416_5eb54976bb41ce2a6d129ef985f792e716f010fb9b69b15f50f5d2db_circblurint.jpg,-2.58766,2.602972,circularblurringint,MILE27,2022-05-16_21h25.03.225,ratings,2022.1.1,Win32,60.08171113
-2.020275958,13.3487,0.136637021,14.031,0,406,406,102,1,284_cdcbd54fc995081ac95c8b2c37a19cebb341f61a8eb268cee1623492_orig.jpg,-1.015872,2.095236,original,MILE27,2022-05-16_21h25.03.225,ratings,2022.1.1,Win32,60.08171113
0.136637021,1.6171,0.273274043,2.1844,0,407,407,218,1,396_208259ea431d47bb7f3946213eb099834eb119756ce304ad473d4d9f_edges.jpg,2.857144,-0.3809524,edges,MILE27,2022-05-16_21h25.03.225,ratings,2022.1.1,Win32,60.08171113
-2.996254682,1.3021,1.844599788,2.1439,0,408,408,323,1,460_e06b3af7ff2f2bfb5f9b6e3d5dc25b9aaa40b84823fac8fd934621bd_circblurext.jpg,-3.430992,-1.607468,circularblurringext,MILE27,2022-05-16_21h25.03.225,ratings,2022.1.1,Win32,60.08171113
-0.165916383,1.643,1.542046383,2.2342,0,409,409,511,1,858_2f6539ee36aba48c38dc716d4f7c3ae93367d6ddf23ab41745d4172c_bw.jpg,0.0623832,0.176752,blackwhite,MILE27,2022-05-16_21h25.03.225,ratings,2022.1.1,Win32,60.08171113
0.126877234,1.5825,0.185435957,2.05,0,410,410,556,1,1014_a5c212ca979d482cf94c2db7697aba75620391a64b030ab7ad2bbecf_circblurint.jpg,-3.174604,-1.374372,circularblurringint,MILE27,2022-05-16_21h25.03.225,ratings,2022.1.1,Win32,60.08171113
0.078078298,1.3326,0.263514255,1.8513,0,411,411,134,1,349_8809a67686d34844c915d7700e2ea72ad1c02ae232ae0d3cc0e458d4_edges.jpg,-3.619048,-0.2857144,edges,MILE27,2022-05-16_21h25.03.225,ratings,2022.1.1,Win32,60.08171113
-0.136637021,1.8027,-0.019519574,2.2066,0,412,412,112,1,293_3dfdfafc0c6a54b2da7453750ac281f7718c0b3337b0a74c4563d6bd_circblurint.jpg,-2.574524,2.632596,circularblurringint,MILE27,2022-05-16_21h25.03.225,ratings,2022.1.1,Win32,60.08171113
0.312313192,3.6362,-3.70871915,9.1598,0,413,413,343,1,494_5c6c3b85a2734a43c24bfe337d42ffcc82b7347227804d01c784cef4_bw.jpg,0.03871468,0.0,blackwhite,MILE27,2022-05-16_21h25.03.225,ratings,2022.1.1,Win32,60.08171113
-3.981993193,1.1422,3.698959363,1.9006,0,414,414,477,1,748_e519892faa7c772a0afaf9eeff36cf0e411574027ab3d9aa4947a048_blur.jpg,-1.813112,3.307432,blurring,MILE27,2022-05-16_21h25.03.225,ratings,2022.1.1,Win32,60.08171113
0.273274043,1.887,-0.019519574,3.1216,0,415,415,452,1,716_2ab64478147184c4df720a52cf621875addc9007cb2967e4a9a88909_edges.jpg,2.428484,0.0,edges,MILE27,2022-05-16_21h25.03.225,ratings,2022.1.1,Win32,60.08171113
0.224475106,41.5327,-1.073576596,42.0437,0,416,416,486,1,818_877aae033c31e3bbca4486321a5307f87cf53c576c546462d3daf194_orig.jpg,-1.277584,0.619436,original,MILE27,2022-05-16_21h25.03.225,ratings,2022.1.1,Win32,60.08171113
0.312313192,7.265,-0.058558723,7.8726,0,417,417,401,1,683_a004ad18331da968da5debdd15e1447dd7748750af0bc6c57b844200_circblurext.jpg,-2.91956,2.466524,circularblurringext,MILE27,2022-05-16_21h25.03.225,ratings,2022.1.1,Win32,60.08171113
-3.064573192,1.5425,1.063816809,2.1509,0,418,418,494,1,824_b1d91cc824ce0d3d383d3147da88d3d6dbaf6be918bab79e3ec8f501_edges.jpg,-3.645176,-1.432784,edges,MILE27,2022-05-16_21h25.03.225,ratings,2022.1.1,Win32,60.08171113
0.956459149,1.8844,-2.888897022,2.3879,0,419,419,349,1,498_305b74cdc4784d9d25e72724302e5402def70177ea31ae7e25fab66b_bw.jpg,3.04762,-0.444444,blackwhite,MILE27,2022-05-16_21h25.03.225,ratings,2022.1.1,Win32,60.08171113
0.234234894,2.7655,-0.927179787,3.2734,0,420,420,395,1,663_aaf52107fe3a86392530d88b34e86f9d2b6820714cad98d1e3c2cb67_circblurext.jpg,2.58766,0.0918696,circularblurringext,MILE27,2022-05-16_21h25.03.225,ratings,2022.1.1,Win32,60.08171113
1.268772341,3.9188,-2.635142554,4.4694,0,421,421,230,1,407_578d31d32e806706dde2563213f130b90e621abfed0e47ecabd85d27_edges.jpg,3.5873,-0.444444,edges,MILE27,2022-05-16_21h25.03.225,ratings,2022.1.1,Win32,60.08171113
0.097597872,3.7136,0.331832766,4.1934,0,422,422,11,1,28_6318543b74eeb646a1735477ebc023fdc9ac3849bc0db1957c272a26_circblurext.jpg,2.811244,-0.74584,circularblurringext,MILE27,2022-05-16_21h25.03.225,ratings,2022.1.1,Win32,60.08171113
0.117117447,1.9169,-3.308567873,2.4926,0,423,423,541,1,1005_b980c0747d20935bc63cc27a9e05ce2ff5bae98f859872ec48edd7f5_bw.jpg,3.428572,-0.476192,blackwhite,MILE27,2022-05-16_21h25.03.225,ratings,2022.1.1,Win32,60.08171113
0.331832766,1.2937,-0.019519574,2.5519,0,424,424,411,1,687_e3b018945792a574962235c88c553b7c318c75eec2596478e8a7b877_blur.jpg,3.63918,-0.42586,blurring,MILE27,2022-05-16_21h25.03.225,ratings,2022.1.1,Win32,60.08171113
1.034537447,1.1546,-3.259768937,1.7067,0,425,425,550,1,1010_06d15f44b979c086561137000ec070ba4cd479856f92840a7850b2bf_circblurint.jpg,0.189786,-0.189786,circularblurringint,MILE27,2022-05-16_21h25.03.225,ratings,2022.1.1,Win32,60.08171113
-2.849857873,2.3682,1.327331064,3.8025,0,426,426,404,1,686_6745b57686ad5d1bd6cf3e7ed5bc0243a154f8939e88e30321dfcfdb_edges.jpg,-1.523808,3.650792,edges,MILE27,2022-05-16_21h25.03.225,ratings,2022.1.1,Win32,60.08171113
0.780782979,5.4594,-2.039795532,5.9004,0,427,427,71,1,172_c641c6c56ca6b594b773084e1363c852abdb65f988d7ff802ee503f2_circblurext.jpg,0.379572,0.01725328,circularblurringext,MILE27,2022-05-16_21h25.03.225,ratings,2022.1.1,Win32,60.08171113
1.112615745,1.3111,-3.484244043,1.8537,0,428,428,519,1,860_05c4e22518a30d3d2add458a8fc6488f87b9b02dd8e385ded939f025_blur.jpg,1.955092,0.3097172,blurring,MILE27,2022-05-16_21h25.03.225,ratings,2022.1.1,Win32,60.08171113
0.45871,1.2166,-3.503763618,1.761,0,429,429,393,1,663_aaf52107fe3a86392530d88b34e86f9d2b6820714cad98d1e3c2cb67_blur.jpg,2.58766,0.0918696,blurring,MILE27,2022-05-16_21h25.03.225,ratings,2022.1.1,Win32,60.08171113
1.30781149,1.4008,0.263514255,2.1667,0,430,430,213,1,394_8e3a0cb945144d53bd1ace04b6256237ed9dcbbd9cb83f8a4886b0e6_blur.jpg,-2.593884,2.651956,blurring,MILE27,2022-05-16_21h25.03.225,ratings,2022.1.1,Win32,60.08171113
1.571325745,1.4914,0.858861277,2.6214,0,431,431,354,1,500_3b520c7f352afa1a9f8c07e56cc0588cdc04d25ff6e7b602b5e280cb_orig.jpg,-0.8328,3.11766,original,MILE27,2022-05-16_21h25.03.225,ratings,2022.1.1,Win32,60.08171113
0.126877234,12.9995,-3.620881065,14.4778,0,432,432,69,1,172_c641c6c56ca6b594b773084e1363c852abdb65f988d7ff802ee503f2_blur.jpg,0.379572,0.01725328,blurring,MILE27,2022-05-16_21h25.03.225,ratings,2022.1.1,Win32,60.08171113
-3.933194256,1.4003,3.864875746,2.2617,0,433,433,435,1,694_f80f33613b268beffd6c044537cf3b44a84683d6e889bc37b8e9c34b_blur.jpg,-0.3785616,3.34728,blurring,MILE27,2022-05-16_21h25.03.225,ratings,2022.1.1,Win32,60.08171113
0.331832766,4.7529,0.087838085,5.4788,0,434,434,598,1,1239_cee00457f4cfb76a407b12fd5ad714d440a4614c1e5467ee16caf618_circblurint.jpg,-0.03174604,0.190476,circularblurringint,MILE27,2022-05-16_21h25.03.225,ratings,2022.1.1,Win32,60.08171113
-2.410667447,1.206,0.751503617,1.7009,0,435,435,539,1,986_a77edb21e78bc3a6aa7406517824596b3496ad6c657b6befb84cf370_circblurext.jpg,-3.906316,-0.60496,circularblurringext,MILE27,2022-05-16_21h25.03.225,ratings,2022.1.1,Win32,60.08171113
0.653905745,49.4015,-3.25000915,49.9973,0,436,436,121,1,347_27f0e47c2722605b950ccf9fa900f78271e4c3c874064ab5dacac160_bw.jpg,1.838948,0.3097172,blackwhite,MILE27,2022-05-16_21h25.03.225,ratings,2022.1.1,Win32,60.08171113
0.780782979,5.7486,-2.840098086,8.793,0,437,437,151,1,355_00a76f54934d36566dd0e7b091b8aa6a56d8e6b32d349aa578a10b45_bw.jpg,2.910052,0.3439152,blackwhite,MILE27,2022-05-16_21h25.03.225,ratings,2022.1.1,Win32,60.08171113
-0.058558723,1.4693,0.078078298,2.0007,0,438,438,584,1,1225_59c67a821456f2cce3e5acf66d7f00076bd02caffc984c1eb0df794e_edges.jpg,-0.444444,3.809524,edges,MILE27,2022-05-16_21h25.03.225,ratings,2022.1.1,Win32,60.08171113
0.165916383,10.1015,-1.337090851,10.7747,0,439,439,65,1,156_08e8cf8f04630e9213e610580de73f51572d1d589878648700bae4dc_circblurext.jpg,2.222224,0.0,circularblurringext,MILE27,2022-05-16_21h25.03.225,ratings,2022.1.1,Win32,60.08171113
0.614866596,1.278,-0.243994681,1.9674,0,440,440,300,1,453_54f106fd1d4b65fa4aa347407127fc30d49f791e81aee3a0bbe44489_orig.jpg,2.222224,0.0,original,MILE27,2022-05-16_21h25.03.225,ratings,2022.1.1,Win32,60.08171113
-3.88439532,1.2768,3.718478937,2.1003,0,441,441,94,1,258_d26019382777d2159a974a7654923e71598135ce2cd710cea1f92865_circblurint.jpg,3.497684,-0.61104,circularblurringint,MILE27,2022-05-16_21h25.03.225,ratings,2022.1.1,Win32,60.08171113
0.692944894,1.4501,-1.298051702,2.1501,0,442,442,413,1,687_e3b018945792a574962235c88c553b7c318c75eec2596478e8a7b877_circblurext.jpg,3.63918,-0.42586,circularblurringext,MILE27,2022-05-16_21h25.03.225,ratings,2022.1.1,Win32,60.08171113
0.380631702,2.0997,-0.380631702,2.5571,0,443,443,563,1,1022_cf035e583d41a856836f8b0ae314ecbe79dffd9e40ef6a08cc26028f_circblurext.jpg,-0.2516452,3.05846,circularblurringext,MILE27,2022-05-16_21h25.03.225,ratings,2022.1.1,Win32,60.08171113
0.165916383,11.5655,-0.28303383,12.1088,0,444,444,155,1,355_00a76f54934d36566dd0e7b091b8aa6a56d8e6b32d349aa578a10b45_circblurext.jpg,2.910052,0.3439152,circularblurringext,MILE27,2022-05-16_21h25.03.225,ratings,2022.1.1,Win32,60.08171113
0.078078298,1.3164,-0.839341702,1.8849,0,445,445,338,1,492_a1a4d288d3bc486c83c3b6a835c42891989f5ba781633932298a7676_edges.jpg,3.406892,-0.44522,edges,MILE27,2022-05-16_21h25.03.225,ratings,2022.1.1,Win32,60.08171113
0.497749149,1.4838,-3.328087448,2.1417,0,446,446,82,1,242_85283f6935a89812ab229dcad9ba184529c9242ac3106d768ecf3ab3_circblurint.jpg,2.14918,-0.2949852,circularblurringint,MILE27,2022-05-16_21h25.03.225,ratings,2022.1.1,Win32,60.08171113
