valence_slider.response,valence_slider.rt,arousal_slider.response,arousal_slider.rt,trials.thisRepN,trials.thisTrialN,trials.thisN,trials.thisIndex,trials.ran,img_name,vm,am,manipulation,participant,date,expName,psychopyVersion,OS,frameRate
-1.451310861,28.333,0.561797753,24.325,0,0,0,243,1,411_adfd0d5782129756321ff671d0cfb712528504c66c863df11aabd1e7_blur.jpg,-3.392332,-1.369576,blurring,moob25,2022-04-28_00h24.07.114,ratings,2022.1.1,Win32,60.0240096
1.292134831,12.871,1.282771536,9.042,0,1,1,474,1,748_e519892faa7c772a0afaf9eeff36cf0e411574027ab3d9aa4947a048_orig.jpg,-1.813112,3.307432,original,moob25,2022-04-28_00h24.07.114,ratings,2022.1.1,Win32,60.0240096
-0.440074906,7.089,-0.355805243,5.965,0,2,2,561,1,1022_cf035e583d41a856836f8b0ae314ecbe79dffd9e40ef6a08cc26028f_blur.jpg,-0.2516452,3.05846,blurring,moob25,2022-04-28_00h24.07.114,ratings,2022.1.1,Win32,60.0240096
-0.168539326,13.088,-0.383895131,16.498,0,3,3,473,1,741_2b218fb015e3da83db73cacdb52e61e0c2534c1fe255bb1c5c74d47f_circblurext.jpg,3.140096,0.448584,circularblurringext,moob25,2022-04-28_00h24.07.114,ratings,2022.1.1,Win32,60.0240096
-0.421348315,6.972,-0.393258427,8.885,0,4,4,289,1,442_7449d79dae5d652af9b2429872cabdef938646ba024db2f431b3b28d_bw.jpg,1.619048,0.126984,blackwhite,moob25,2022-04-28_00h24.07.114,ratings,2022.1.1,Win32,60.0240096
-1.104868914,7.124,0.018726592,8.798,0,5,5,552,1,1014_a5c212ca979d482cf94c2db7697aba75620391a64b030ab7ad2bbecf_orig.jpg,-3.174604,-1.374372,original,moob25,2022-04-28_00h24.07.114,ratings,2022.1.1,Win32,60.0240096
-0.767790262,17.172,0.234082397,14.871,0,6,6,204,1,381_5935a9f9796adce2f1539af6c75bcdc0c80d847a2ce9b77cf59b7672_orig.jpg,-1.327432,-0.442476,original,moob25,2022-04-28_00h24.07.114,ratings,2022.1.1,Win32,60.0240096
0.486891386,16.188,-0.411985019,1.928,0,7,7,81,1,242_85283f6935a89812ab229dcad9ba184529c9242ac3106d768ecf3ab3_blur.jpg,2.14918,-0.2949852,blurring,moob25,2022-04-28_00h24.07.114,ratings,2022.1.1,Win32,60.0240096
0.945692884,8.876,-0.992509363,14.847,0,8,8,118,1,332_4d584229bdae2e1782f77f0e953e528f13c3dfa79b4b94736c0310fa_circblurint.jpg,3.157348,0.483092,circularblurringint,moob25,2022-04-28_00h24.07.114,ratings,2022.1.1,Win32,60.0240096
-1.685393258,8.988,1.43258427,18.32,0,9,9,298,1,449_9c1e990a3480e5b51430fe76b0188e69ba2468fd6a866b88b2d0dd75_circblurint.jpg,0.095238,0.03174604,circularblurringint,moob25,2022-04-28_00h24.07.114,ratings,2022.1.1,Win32,60.0240096
-1.816479401,4.889,1.573033708,2.963,0,10,10,322,1,460_e06b3af7ff2f2bfb5f9b6e3d5dc25b9aaa40b84823fac8fd934621bd_circblurint.jpg,-3.430992,-1.607468,circularblurringint,moob25,2022-04-28_00h24.07.114,ratings,2022.1.1,Win32,60.0240096
-0.374531835,7.103,-0.337078652,5.603,0,11,11,315,1,459_46e25de472bb056cb470716d30937415f7344bfc4354d6eb710d8c9f_blur.jpg,0.03174604,0.0,blurring,moob25,2022-04-28_00h24.07.114,ratings,2022.1.1,Win32,60.0240096
1.376404494,5.788,-0.861423221,14.172,0,12,12,523,1,877_cab3efed0c9ff4552037df6c1ea4ea9713f915c94592a14dbf2799da_bw.jpg,3.174604,0.3174604,blackwhite,moob25,2022-04-28_00h24.07.114,ratings,2022.1.1,Win32,60.0240096
-1.86329588,18.304,0.730337079,19.321,0,13,13,570,1,1039_d64da8480fc6e94dcdc513237d600570ae0b9fe48795ac6a8b2d29a7_orig.jpg,-2.507936,-1.142856,original,moob25,2022-04-28_00h24.07.114,ratings,2022.1.1,Win32,60.0240096
-0.458801498,2.117,-0.43071161,3.022,0,14,14,442,1,700_59cb565f134f1afd066d7b6d936c6511b7cb76de0e9cbb5ce15124ad_circblurint.jpg,0.0,0.0,circularblurringint,moob25,2022-04-28_00h24.07.114,ratings,2022.1.1,Win32,60.0240096
-1.647940075,7.561,1.198501873,9.31,0,15,15,407,1,686_6745b57686ad5d1bd6cf3e7ed5bc0243a154f8939e88e30321dfcfdb_circblurext.jpg,-1.523808,3.650792,circularblurringext,moob25,2022-04-28_00h24.07.114,ratings,2022.1.1,Win32,60.0240096
-1.245318352,4.937,0.917602996,12.378,0,16,16,151,1,355_00a76f54934d36566dd0e7b091b8aa6a56d8e6b32d349aa578a10b45_bw.jpg,2.910052,0.3439152,blackwhite,moob25,2022-04-28_00h24.07.114,ratings,2022.1.1,Win32,60.0240096
-0.421348315,3.772,-0.393258427,2.227,0,17,17,416,1,692_7d7eaf20e6de8956f0fca7500ace97a8599aa8b605a7d690cdb28724_edges.jpg,-2.063492,-1.26984,edges,moob25,2022-04-28_00h24.07.114,ratings,2022.1.1,Win32,60.0240096
-1.38576779,7.046,1.161048689,13.463,0,18,18,495,1,824_b1d91cc824ce0d3d383d3147da88d3d6dbaf6be918bab79e3ec8f501_blur.jpg,-3.645176,-1.432784,blurring,moob25,2022-04-28_00h24.07.114,ratings,2022.1.1,Win32,60.0240096
-0.449438202,11.396,-0.15917603,6.604,0,19,19,265,1,431_ab5a1dbbe9292ac7f74e276cdabcd372e2c1f852ff34bf7cc6646ef8_bw.jpg,3.102584,0.354334,blackwhite,moob25,2022-04-28_00h24.07.114,ratings,2022.1.1,Win32,60.0240096
-0.449438202,8.975,-0.440074906,6.339,0,20,20,296,1,449_9c1e990a3480e5b51430fe76b0188e69ba2468fd6a866b88b2d0dd75_edges.jpg,0.095238,0.03174604,edges,moob25,2022-04-28_00h24.07.114,ratings,2022.1.1,Win32,60.0240096
-0.018726592,20.797,-0.393258427,25.289,0,21,21,429,1,694_7a14b8ab7c564dcb0f628c4de7f6cb54e4c5f6601f774bf167641c37_blur.jpg,1.819588,0.116144,blurring,moob25,2022-04-28_00h24.07.114,ratings,2022.1.1,Win32,60.0240096
-0.47752809,3.155,-0.393258427,6.594,0,22,22,359,1,500_3b520c7f352afa1a9f8c07e56cc0588cdc04d25ff6e7b602b5e280cb_circblurext.jpg,-0.8328,3.11766,circularblurringext,moob25,2022-04-28_00h24.07.114,ratings,2022.1.1,Win32,60.0240096
-0.421348315,1.914,-0.47752809,4.36,0,23,23,482,1,759_95e1c46ed9a337414d5c8eada8fa8b9632e18751f5ce6ed587806e91_edges.jpg,2.126984,0.0,edges,moob25,2022-04-28_00h24.07.114,ratings,2022.1.1,Win32,60.0240096
-0.402621723,15.071,0.43071161,26.311,0,24,24,60,1,156_08e8cf8f04630e9213e610580de73f51572d1d589878648700bae4dc_orig.jpg,2.222224,0.0,original,moob25,2022-04-28_00h24.07.114,ratings,2022.1.1,Win32,60.0240096
-0.290262172,11.821,-0.514981273,13.854,0,25,25,465,1,736_bb85db1bcda8eb34299aa5791ac65a0a7c343266eb2d6e6e328ec0e1_blur.jpg,3.650792,-0.03174604,blurring,moob25,2022-04-28_00h24.07.114,ratings,2022.1.1,Win32,60.0240096
-1.853932584,2.779,0.711610487,11.659,0,26,26,361,1,508_a7a9519cdc7aad6844030f4e6cd96cffd1b9c49b71e20ea52789bda2_bw.jpg,-3.000388,-1.29694,blackwhite,moob25,2022-04-28_00h24.07.114,ratings,2022.1.1,Win32,60.0240096
-0.458801498,3.955,-0.421348315,2.443,0,27,27,122,1,347_27f0e47c2722605b950ccf9fa900f78271e4c3c874064ab5dacac160_edges.jpg,1.838948,0.3097172,edges,moob25,2022-04-28_00h24.07.114,ratings,2022.1.1,Win32,60.0240096
-0.814606742,7.024,0.646067416,7.931,0,28,28,97,1,267_792043debad81ce271cec5b3c3bd9d264efc13f362bec9c7a3f72fe7_bw.jpg,1.980616,0.2107036,blackwhite,moob25,2022-04-28_00h24.07.114,ratings,2022.1.1,Win32,60.0240096
-0.440074906,2.478,-0.411985019,1.432,0,29,29,554,1,1014_a5c212ca979d482cf94c2db7697aba75620391a64b030ab7ad2bbecf_edges.jpg,-3.174604,-1.374372,edges,moob25,2022-04-28_00h24.07.114,ratings,2022.1.1,Win32,60.0240096
-0.440074906,5.474,-0.421348315,4.629,0,30,30,260,1,416_8a1f874e0057d67a4e6955865ba88b2d8ce2c8b4469589307687a723_edges.jpg,-1.753336,3.088264,edges,moob25,2022-04-28_00h24.07.114,ratings,2022.1.1,Win32,60.0240096
-0.47752809,2.237,-0.393258427,1.554,0,31,31,158,1,358_157f8ac929713531a15b1ecf115e7b659cb90e83d675251e368d165f_edges.jpg,-3.777776,-0.571428,edges,moob25,2022-04-28_00h24.07.114,ratings,2022.1.1,Win32,60.0240096
-0.814606742,3.307,0.393258427,15.488,0,32,32,45,1,92_5d20d78a8e57e628c6930676473a4e0a485e715841efd6286c660020_blur.jpg,2.126984,0.0,blurring,moob25,2022-04-28_00h24.07.114,ratings,2022.1.1,Win32,60.0240096
-1.27340824,17.21,0.47752809,13.455,0,33,33,515,1,858_2f6539ee36aba48c38dc716d4f7c3ae93367d6ddf23ab41745d4172c_circblurext.jpg,0.0623832,0.176752,circularblurringext,moob25,2022-04-28_00h24.07.114,ratings,2022.1.1,Win32,60.0240096
1.011235955,10.221,0.833333333,8.053,0,34,34,51,1,112_b6a4ce721c2e42943d7d8b168751d74cd2f372b1cd4fed5a4404faec_blur.jpg,2.107036,0.505688,blurring,moob25,2022-04-28_00h24.07.114,ratings,2022.1.1,Win32,60.0240096
-0.411985019,2.298,-0.327715356,6.154,0,35,35,409,1,687_e3b018945792a574962235c88c553b7c318c75eec2596478e8a7b877_bw.jpg,3.63918,-0.42586,blackwhite,moob25,2022-04-28_00h24.07.114,ratings,2022.1.1,Win32,60.0240096
-1.657303371,3.988,1.104868914,7.891,0,36,36,402,1,686_6745b57686ad5d1bd6cf3e7ed5bc0243a154f8939e88e30321dfcfdb_orig.jpg,-1.523808,3.650792,original,moob25,2022-04-28_00h24.07.114,ratings,2022.1.1,Win32,60.0240096
-0.449438202,2.586,-0.383895131,3.527,0,37,37,578,1,1061_665178b9cb0bc869cc2e2b68def4838db04e66f9531098fb75875a09_edges.jpg,0.3492064,-0.3174604,edges,moob25,2022-04-28_00h24.07.114,ratings,2022.1.1,Win32,60.0240096
-0.421348315,4.344,0.337078652,22.454,0,38,38,357,1,500_3b520c7f352afa1a9f8c07e56cc0588cdc04d25ff6e7b602b5e280cb_blur.jpg,-0.8328,3.11766,blurring,moob25,2022-04-28_00h24.07.114,ratings,2022.1.1,Win32,60.0240096
0.215355805,5.637,-1.404494382,10.105,0,39,39,109,1,293_3dfdfafc0c6a54b2da7453750ac281f7718c0b3337b0a74c4563d6bd_bw.jpg,-2.574524,2.632596,blackwhite,moob25,2022-04-28_00h24.07.114,ratings,2022.1.1,Win32,60.0240096
0.046816479,19.371,0.149812734,7.772,0,40,40,582,1,1225_59c67a821456f2cce3e5acf66d7f00076bd02caffc984c1eb0df794e_orig.jpg,-0.444444,3.809524,original,moob25,2022-04-28_00h24.07.114,ratings,2022.1.1,Win32,60.0240096
-0.561797753,10.298,-0.411985019,6.939,0,41,41,139,1,353_44e285740cb41818482ac93fc5fbd72c18029444a1d7506c9fc053e7_bw.jpg,-3.232676,-0.87108,blackwhite,moob25,2022-04-28_00h24.07.114,ratings,2022.1.1,Win32,60.0240096
0.355805243,13.355,0.299625468,14.594,0,42,42,225,1,403_57ac47f43882fc031a6067b1a388c0b2cbe8708dcbd2ff1019932eff_blur.jpg,-3.333332,-1.396824,blurring,moob25,2022-04-28_00h24.07.114,ratings,2022.1.1,Win32,60.0240096
0.131086142,56.826,0.046816479,58.42,0,43,43,231,1,407_578d31d32e806706dde2563213f130b90e621abfed0e47ecabd85d27_blur.jpg,3.5873,-0.444444,blurring,moob25,2022-04-28_00h24.07.114,ratings,2022.1.1,Win32,60.0240096
-0.43071161,3.998,-0.402621723,10.691,0,44,44,113,1,293_3dfdfafc0c6a54b2da7453750ac281f7718c0b3337b0a74c4563d6bd_circblurext.jpg,-2.574524,2.632596,circularblurringext,moob25,2022-04-28_00h24.07.114,ratings,2022.1.1,Win32,60.0240096
0.411985019,5.726,-1.694756554,22.456,0,45,45,184,1,369_98db62a1bdabfd1bc551180da6658005b461585cd21614633cf76470_circblurint.jpg,2.190476,-0.03174604,circularblurringint,moob25,2022-04-28_00h24.07.114,ratings,2022.1.1,Win32,60.0240096
-2.247191011,6.224,1.22659176,7.989,0,46,46,133,1,349_8809a67686d34844c915d7700e2ea72ad1c02ae232ae0d3cc0e458d4_bw.jpg,-3.619048,-0.2857144,blackwhite,moob25,2022-04-28_00h24.07.114,ratings,2022.1.1,Win32,60.0240096
-0.43071161,1.58,-0.355805243,2.405,0,47,47,392,1,663_aaf52107fe3a86392530d88b34e86f9d2b6820714cad98d1e3c2cb67_edges.jpg,2.58766,0.0918696,edges,moob25,2022-04-28_00h24.07.114,ratings,2022.1.1,Win32,60.0240096
-0.683520599,8.806,0.009363296,6.526,0,48,48,131,1,349_18d92ef5c21ca70a3dd237aad251594e1688bbe01d8cff37b89c46b8_circblurext.jpg,-2.74874,-1.258228,circularblurringext,moob25,2022-04-28_00h24.07.114,ratings,2022.1.1,Win32,60.0240096
0.617977528,2.12,-0.374531835,13.204,0,49,49,431,1,694_7a14b8ab7c564dcb0f628c4de7f6cb54e4c5f6601f774bf167641c37_circblurext.jpg,1.819588,0.116144,circularblurringext,moob25,2022-04-28_00h24.07.114,ratings,2022.1.1,Win32,60.0240096
0.561797753,3.538,0.524344569,30.861,0,50,50,148,1,354_e46c3ec6fb00773f64f2bcd212385f253c389808fe724b7cf8611051_circblurint.jpg,2.018292,0.0,circularblurringint,moob25,2022-04-28_00h24.07.114,ratings,2022.1.1,Win32,60.0240096
-1.685393258,5.42,0.767790262,4.478,0,51,51,423,1,692_e3e3bf88684fbbcdb9849a4147f9e2fcd39b0f083554a829aca4e9fa_blur.jpg,-0.44522,3.135888,blurring,moob25,2022-04-28_00h24.07.114,ratings,2022.1.1,Win32,60.0240096
0.608614232,2.404,-1.039325843,3.347,0,52,52,112,1,293_3dfdfafc0c6a54b2da7453750ac281f7718c0b3337b0a74c4563d6bd_circblurint.jpg,-2.574524,2.632596,circularblurringint,moob25,2022-04-28_00h24.07.114,ratings,2022.1.1,Win32,60.0240096
1.5917603,6.173,1.479400749,3.065,0,53,53,73,1,236_f645730e1eb06155418c9a571329cc7fa320654fcaaedf1048b5cc11_bw.jpg,2.253968,0.0,blackwhite,moob25,2022-04-28_00h24.07.114,ratings,2022.1.1,Win32,60.0240096
0.786516854,2.105,-1.151685393,4.875,0,54,54,27,1,59_8568373b727f29d67ba6ce4c360dd918c8b08b13495fca56bdda5e82_blur.jpg,2.064896,0.505688,blurring,moob25,2022-04-28_00h24.07.114,ratings,2022.1.1,Win32,60.0240096
-0.95505618,2.781,1.938202247,3.857,0,55,55,310,1,455_34a7d8167619d110206c369e3f7dce8a3f99db763a9d8e2b956501d3_circblurint.jpg,-2.526412,-0.3827896,circularblurringint,moob25,2022-04-28_00h24.07.114,ratings,2022.1.1,Win32,60.0240096
-0.074906367,2.799,-0.767790262,3.956,0,56,56,44,1,92_5d20d78a8e57e628c6930676473a4e0a485e715841efd6286c660020_edges.jpg,2.126984,0.0,edges,moob25,2022-04-28_00h24.07.114,ratings,2022.1.1,Win32,60.0240096
-0.449438202,11.355,-0.346441948,12.355,0,57,57,197,1,379_eeaa6d9bf5a4ef205dc48bc505cf3a7f24ea86e99af9b371e03602a7_circblurext.jpg,-0.3926308,2.88936,circularblurringext,moob25,2022-04-28_00h24.07.114,ratings,2022.1.1,Win32,60.0240096
-0.786516854,3.239,-0.262172285,6.355,0,58,58,365,1,508_a7a9519cdc7aad6844030f4e6cd96cffd1b9c49b71e20ea52789bda2_circblurext.jpg,-3.000388,-1.29694,circularblurringext,moob25,2022-04-28_00h24.07.114,ratings,2022.1.1,Win32,60.0240096
-2.097378277,2.005,0.95505618,7.39,0,59,59,271,1,434_ba36d91204d7e578001f6a545d7501e65d209554def5a3c8b7583825_bw.jpg,-3.523808,1.428572,blackwhite,moob25,2022-04-28_00h24.07.114,ratings,2022.1.1,Win32,60.0240096
-0.383895131,3.063,-0.393258427,3.889,0,60,60,102,1,284_cdcbd54fc995081ac95c8b2c37a19cebb341f61a8eb268cee1623492_orig.jpg,-1.015872,2.095236,original,moob25,2022-04-28_00h24.07.114,ratings,2022.1.1,Win32,60.0240096
-0.018726592,5.774,0.308988764,11.397,0,61,61,347,1,494_5c6c3b85a2734a43c24bfe337d42ffcc82b7347227804d01c784cef4_circblurext.jpg,0.03871468,0.0,circularblurringext,moob25,2022-04-28_00h24.07.114,ratings,2022.1.1,Win32,60.0240096
-0.524344569,2.956,-0.374531835,20.559,0,62,62,311,1,455_34a7d8167619d110206c369e3f7dce8a3f99db763a9d8e2b956501d3_circblurext.jpg,-2.526412,-0.3827896,circularblurringext,moob25,2022-04-28_00h24.07.114,ratings,2022.1.1,Win32,60.0240096
-1.647940075,5.726,1.179775281,6.65,0,63,63,529,1,915_dc9fd40a3b5d64a180833a7bac86e7556c24f681f473fe255e41f936_bw.jpg,-3.09294,-0.918696,blackwhite,moob25,2022-04-28_00h24.07.114,ratings,2022.1.1,Win32,60.0240096
-1.685393258,17.538,1.020599251,18.388,0,64,64,235,1,410_9633c4ff6e8888fcfca59a60ca86e9606d3e0736500a254101bdf295_bw.jpg,-0.3677892,2.981028,blackwhite,moob25,2022-04-28_00h24.07.114,ratings,2022.1.1,Win32,60.0240096
0.374531835,1.362,-0.842696629,2.038,0,65,65,568,1,1037_e2eb929a6de79a63ce6cfe5321fcb74a203b134e4094932d90b01d99_circblurint.jpg,2.651956,0.0,circularblurringint,moob25,2022-04-28_00h24.07.114,ratings,2022.1.1,Win32,60.0240096
-0.346441948,6.526,-0.393258427,17.492,0,66,66,215,1,394_8e3a0cb945144d53bd1ace04b6256237ed9dcbbd9cb83f8a4886b0e6_circblurext.jpg,-2.593884,2.651956,circularblurringext,moob25,2022-04-28_00h24.07.114,ratings,2022.1.1,Win32,60.0240096
-0.440074906,1.694,-0.374531835,4.077,0,67,67,103,1,284_cdcbd54fc995081ac95c8b2c37a19cebb341f61a8eb268cee1623492_bw.jpg,-1.015872,2.095236,blackwhite,moob25,2022-04-28_00h24.07.114,ratings,2022.1.1,Win32,60.0240096
-1.142322097,9.005,0.411985019,11.063,0,68,68,360,1,508_a7a9519cdc7aad6844030f4e6cd96cffd1b9c49b71e20ea52789bda2_orig.jpg,-3.000388,-1.29694,original,moob25,2022-04-28_00h24.07.114,ratings,2022.1.1,Win32,60.0240096
-1.526217228,10.706,1.441947566,11.509,0,69,69,240,1,411_adfd0d5782129756321ff671d0cfb712528504c66c863df11aabd1e7_orig.jpg,-3.392332,-1.369576,original,moob25,2022-04-28_00h24.07.114,ratings,2022.1.1,Win32,60.0240096
-2.078651685,2.653,1.189138577,3.642,0,70,70,161,1,358_157f8ac929713531a15b1ecf115e7b659cb90e83d675251e368d165f_circblurext.jpg,-3.777776,-0.571428,circularblurringext,moob25,2022-04-28_00h24.07.114,ratings,2022.1.1,Win32,60.0240096
-1.095505618,10.698,1.760299625,14.556,0,71,71,348,1,498_305b74cdc4784d9d25e72724302e5402def70177ea31ae7e25fab66b_orig.jpg,3.04762,-0.444444,original,moob25,2022-04-28_00h24.07.114,ratings,2022.1.1,Win32,60.0240096
-0.262172285,11.577,-0.374531835,12.83,0,72,72,4,1,13_771f4fcf0a212d25d6a78565e7f34cc5ddd823e7afbdc77ef063326e_circblurint.jpg,2.190476,0.0,circularblurringint,moob25,2022-04-28_00h24.07.114,ratings,2022.1.1,Win32,60.0240096
-0.496254682,1.322,-0.374531835,2.009,0,73,73,104,1,284_cdcbd54fc995081ac95c8b2c37a19cebb341f61a8eb268cee1623492_edges.jpg,-1.015872,2.095236,edges,moob25,2022-04-28_00h24.07.114,ratings,2022.1.1,Win32,60.0240096
1.217228464,8.756,0.842696629,13.39,0,74,74,229,1,407_578d31d32e806706dde2563213f130b90e621abfed0e47ecabd85d27_bw.jpg,3.5873,-0.444444,blackwhite,moob25,2022-04-28_00h24.07.114,ratings,2022.1.1,Win32,60.0240096
-0.655430712,1.806,-0.224719101,2.776,0,75,75,205,1,381_5935a9f9796adce2f1539af6c75bcdc0c80d847a2ce9b77cf59b7672_bw.jpg,-1.327432,-0.442476,blackwhite,moob25,2022-04-28_00h24.07.114,ratings,2022.1.1,Win32,60.0240096
-0.458801498,9.738,-0.402621723,11.957,0,76,76,227,1,403_57ac47f43882fc031a6067b1a388c0b2cbe8708dcbd2ff1019932eff_circblurext.jpg,-3.333332,-1.396824,circularblurringext,moob25,2022-04-28_00h24.07.114,ratings,2022.1.1,Win32,60.0240096
-0.308988764,5.188,-0.131086142,7.108,0,77,77,281,1,440_9bf7e8609729bf888835168834da6c3ff30b75d0d4f36e2ee6918bcc_circblurext.jpg,-2.284164,2.710028,circularblurringext,moob25,2022-04-28_00h24.07.114,ratings,2022.1.1,Win32,60.0240096
-0.402621723,1.457,-0.458801498,2.22,0,78,78,224,1,403_57ac47f43882fc031a6067b1a388c0b2cbe8708dcbd2ff1019932eff_edges.jpg,-3.333332,-1.396824,edges,moob25,2022-04-28_00h24.07.114,ratings,2022.1.1,Win32,60.0240096
-0.74906367,4.039,0.561797753,5.455,0,79,79,14,1,39_2fafccaa4dc69045a05845f59c6b3cd2edcf7e0e0c108b24e553afe0_edges.jpg,2.022756,0.463548,edges,moob25,2022-04-28_00h24.07.114,ratings,2022.1.1,Win32,60.0240096
-0.917602996,2.565,1.413857678,6.43,0,80,80,388,1,646_577760d718dab44c6f04d77408c5644a120065ce07a9503957d0850a_circblurint.jpg,-2.690668,2.61324,circularblurringint,moob25,2022-04-28_00h24.07.114,ratings,2022.1.1,Win32,60.0240096
-0.524344569,3.58,-0.196629213,4.391,0,81,81,387,1,646_577760d718dab44c6f04d77408c5644a120065ce07a9503957d0850a_blur.jpg,-2.690668,2.61324,blurring,moob25,2022-04-28_00h24.07.114,ratings,2022.1.1,Win32,60.0240096
0.187265918,4.572,-1.376404494,2.688,0,82,82,484,1,759_95e1c46ed9a337414d5c8eada8fa8b9632e18751f5ce6ed587806e91_circblurint.jpg,2.126984,0.0,circularblurringint,moob25,2022-04-28_00h24.07.114,ratings,2022.1.1,Win32,60.0240096
1.142322097,4.957,1.076779026,2.878,0,83,83,444,1,709_69c01dcde028a2a1a913f1a2a5026ae1748484f75c89217a040c6791_orig.jpg,1.432444,-0.01935732,original,moob25,2022-04-28_00h24.07.114,ratings,2022.1.1,Win32,60.0240096
0.290262172,1.991,-0.945692884,23.66,0,84,84,255,1,416_5eb54976bb41ce2a6d129ef985f792e716f010fb9b69b15f50f5d2db_blur.jpg,-2.58766,2.602972,blurring,moob25,2022-04-28_00h24.07.114,ratings,2022.1.1,Win32,60.0240096
-1.329588015,1.339,0.215355805,8.592,0,85,85,307,1,455_34a7d8167619d110206c369e3f7dce8a3f99db763a9d8e2b956501d3_bw.jpg,-2.526412,-0.3827896,blackwhite,moob25,2022-04-28_00h24.07.114,ratings,2022.1.1,Win32,60.0240096
-1.310861423,4.806,0.861423221,6.156,0,86,86,575,1,1039_d64da8480fc6e94dcdc513237d600570ae0b9fe48795ac6a8b2d29a7_circblurext.jpg,-2.507936,-1.142856,circularblurringext,moob25,2022-04-28_00h24.07.114,ratings,2022.1.1,Win32,60.0240096
-0.224719101,13.372,-0.926966292,16.457,0,87,87,485,1,759_95e1c46ed9a337414d5c8eada8fa8b9632e18751f5ce6ed587806e91_circblurext.jpg,2.126984,0.0,circularblurringext,moob25,2022-04-28_00h24.07.114,ratings,2022.1.1,Win32,60.0240096
0.683520599,2.846,0.617977528,3.737,0,88,88,597,1,1239_cee00457f4cfb76a407b12fd5ad714d440a4614c1e5467ee16caf618_blur.jpg,-0.03174604,0.190476,blurring,moob25,2022-04-28_00h24.07.114,ratings,2022.1.1,Win32,60.0240096
-0.627340824,2.308,0.271535581,2.971,0,89,89,171,1,365_45a719cabbc9aa308c4fcb30d529489c6966ac4073874af84f665c61_blur.jpg,2.507936,-1.968252,blurring,moob25,2022-04-28_00h24.07.114,ratings,2022.1.1,Win32,60.0240096
-0.252808989,11.963,-0.917602996,14.025,0,90,90,172,1,365_45a719cabbc9aa308c4fcb30d529489c6966ac4073874af84f665c61_circblurint.jpg,2.507936,-1.968252,circularblurringint,moob25,2022-04-28_00h24.07.114,ratings,2022.1.1,Win32,60.0240096
-2.294007491,2.604,0.421348315,7.526,0,91,91,319,1,460_e06b3af7ff2f2bfb5f9b6e3d5dc25b9aaa40b84823fac8fd934621bd_bw.jpg,-3.430992,-1.607468,blackwhite,moob25,2022-04-28_00h24.07.114,ratings,2022.1.1,Win32,60.0240096
1.020599251,2.546,-0.777153558,13.111,0,92,92,82,1,242_85283f6935a89812ab229dcad9ba184529c9242ac3106d768ecf3ab3_circblurint.jpg,2.14918,-0.2949852,circularblurringint,moob25,2022-04-28_00h24.07.114,ratings,2022.1.1,Win32,60.0240096
-0.468164794,1.396,-0.346441948,2.292,0,93,93,80,1,242_85283f6935a89812ab229dcad9ba184529c9242ac3106d768ecf3ab3_edges.jpg,2.14918,-0.2949852,edges,moob25,2022-04-28_00h24.07.114,ratings,2022.1.1,Win32,60.0240096
-1.54494382,3.665,1.27340824,5.539,0,94,94,54,1,137_0e6a04243c0a42a5e2528a2d181255ca2a4b7bd6e7978c5c2059c69f_orig.jpg,-0.95238,2.095236,original,moob25,2022-04-28_00h24.07.114,ratings,2022.1.1,Win32,60.0240096
1.039325843,3.54,0.58988764,4.54,0,95,95,421,1,692_e3e3bf88684fbbcdb9849a4147f9e2fcd39b0f083554a829aca4e9fa_bw.jpg,-0.44522,3.135888,blackwhite,moob25,2022-04-28_00h24.07.114,ratings,2022.1.1,Win32,60.0240096
1.029962547,9.542,0.777153558,10.921,0,96,96,42,1,92_5d20d78a8e57e628c6930676473a4e0a485e715841efd6286c660020_orig.jpg,2.126984,0.0,original,moob25,2022-04-28_00h24.07.114,ratings,2022.1.1,Win32,60.0240096
0.280898876,6.053,-1.011235955,7.504,0,97,97,481,1,759_95e1c46ed9a337414d5c8eada8fa8b9632e18751f5ce6ed587806e91_bw.jpg,2.126984,0.0,blackwhite,moob25,2022-04-28_00h24.07.114,ratings,2022.1.1,Win32,60.0240096
-1.582397004,7.11,1.086142322,7.875,0,98,98,251,1,414_0187bdf7007109b487865b6a9d388997a6817acf052a6a7cdd5b39d9_circblurext.jpg,-2.786708,-1.133056,circularblurringext,moob25,2022-04-28_00h24.07.114,ratings,2022.1.1,Win32,60.0240096
1.076779026,6.896,0.599250936,3.761,0,99,99,39,1,82_43f4d5aec7c2e5bd495473f6708a0f2d47c9fe34e1fe9436646cb036_blur.jpg,2.022756,0.505688,blurring,moob25,2022-04-28_00h24.07.114,ratings,2022.1.1,Win32,60.0240096
1.395131086,7.155,1.348314607,7.738,0,100,100,75,1,236_f645730e1eb06155418c9a571329cc7fa320654fcaaedf1048b5cc11_blur.jpg,2.253968,0.0,blurring,moob25,2022-04-28_00h24.07.114,ratings,2022.1.1,Win32,60.0240096
-1.722846442,1.821,1.582397004,6.614,0,101,101,246,1,414_0187bdf7007109b487865b6a9d388997a6817acf052a6a7cdd5b39d9_orig.jpg,-2.786708,-1.133056,original,moob25,2022-04-28_00h24.07.114,ratings,2022.1.1,Win32,60.0240096
0.79588015,18.328,0.655430712,11.606,0,102,102,292,1,442_7449d79dae5d652af9b2429872cabdef938646ba024db2f431b3b28d_circblurint.jpg,1.619048,0.126984,circularblurringint,moob25,2022-04-28_00h24.07.114,ratings,2022.1.1,Win32,60.0240096
-0.674157303,6.024,1.076779026,12.248,0,103,103,512,1,858_2f6539ee36aba48c38dc716d4f7c3ae93367d6ddf23ab41745d4172c_edges.jpg,0.0623832,0.176752,edges,moob25,2022-04-28_00h24.07.114,ratings,2022.1.1,Win32,60.0240096
-0.646067416,15.839,-0.486891386,14.571,0,104,104,408,1,687_e3b018945792a574962235c88c553b7c318c75eec2596478e8a7b877_orig.jpg,3.63918,-0.42586,original,moob25,2022-04-28_00h24.07.114,ratings,2022.1.1,Win32,60.0240096
-0.374531835,3.681,0.608614232,4.66,0,105,105,356,1,500_3b520c7f352afa1a9f8c07e56cc0588cdc04d25ff6e7b602b5e280cb_edges.jpg,-0.8328,3.11766,edges,moob25,2022-04-28_00h24.07.114,ratings,2022.1.1,Win32,60.0240096
-0.543071161,4.454,0.402621723,5.297,0,106,106,338,1,492_a1a4d288d3bc486c83c3b6a835c42891989f5ba781633932298a7676_edges.jpg,3.406892,-0.44522,edges,moob25,2022-04-28_00h24.07.114,ratings,2022.1.1,Win32,60.0240096
-0.63670412,2.907,0.514981273,5.038,0,107,107,101,1,267_792043debad81ce271cec5b3c3bd9d264efc13f362bec9c7a3f72fe7_circblurext.jpg,1.980616,0.2107036,circularblurringext,moob25,2022-04-28_00h24.07.114,ratings,2022.1.1,Win32,60.0240096
-0.739700375,3.643,0.084269663,5.738,0,108,108,553,1,1014_a5c212ca979d482cf94c2db7697aba75620391a64b030ab7ad2bbecf_bw.jpg,-3.174604,-1.374372,blackwhite,moob25,2022-04-28_00h24.07.114,ratings,2022.1.1,Win32,60.0240096
-0.468164794,3.362,-0.093632959,5.043,0,109,109,386,1,646_577760d718dab44c6f04d77408c5644a120065ce07a9503957d0850a_edges.jpg,-2.690668,2.61324,edges,moob25,2022-04-28_00h24.07.114,ratings,2022.1.1,Win32,60.0240096
0.646067416,7.725,0.411985019,6.987,0,110,110,226,1,403_57ac47f43882fc031a6067b1a388c0b2cbe8708dcbd2ff1019932eff_circblurint.jpg,-3.333332,-1.396824,circularblurringint,moob25,2022-04-28_00h24.07.114,ratings,2022.1.1,Win32,60.0240096
0.299625468,9.39,-0.973782772,8.172,0,111,111,110,1,293_3dfdfafc0c6a54b2da7453750ac281f7718c0b3337b0a74c4563d6bd_edges.jpg,-2.574524,2.632596,edges,moob25,2022-04-28_00h24.07.114,ratings,2022.1.1,Win32,60.0240096
-0.065543071,5.072,0.337078652,7.242,0,112,112,342,1,494_5c6c3b85a2734a43c24bfe337d42ffcc82b7347227804d01c784cef4_orig.jpg,0.03871468,0.0,original,moob25,2022-04-28_00h24.07.114,ratings,2022.1.1,Win32,60.0240096
-0.093632959,2.12,-0.102996255,2.78,0,113,113,549,1,1010_06d15f44b979c086561137000ec070ba4cd479856f92840a7850b2bf_blur.jpg,0.189786,-0.189786,blurring,moob25,2022-04-28_00h24.07.114,ratings,2022.1.1,Win32,60.0240096
-2.425093633,10.175,0.337078652,15.442,0,114,114,499,1,854_081a8409e4d6d10923b2dedcc16a3fca405fcd602e55a20d84cac69d_bw.jpg,3.088264,1.21538,blackwhite,moob25,2022-04-28_00h24.07.114,ratings,2022.1.1,Win32,60.0240096
-0.393258427,1.506,-0.346441948,1.907,0,115,115,374,1,620_9674719009d75dcfeaed7f15932c43e1fd1af5e25d47b8aadd61efe2_edges.jpg,-0.561364,1.142084,edges,moob25,2022-04-28_00h24.07.114,ratings,2022.1.1,Win32,60.0240096
0.63670412,1.683,0.112359551,6.646,0,116,116,222,1,403_57ac47f43882fc031a6067b1a388c0b2cbe8708dcbd2ff1019932eff_orig.jpg,-3.333332,-1.396824,original,moob25,2022-04-28_00h24.07.114,ratings,2022.1.1,Win32,60.0240096
-1.357677903,1.737,0.898876404,6.336,0,117,117,355,1,500_3b520c7f352afa1a9f8c07e56cc0588cdc04d25ff6e7b602b5e280cb_bw.jpg,-0.8328,3.11766,blackwhite,moob25,2022-04-28_00h24.07.114,ratings,2022.1.1,Win32,60.0240096
-0.346441948,1.638,-0.458801498,29.67,0,118,118,483,1,759_95e1c46ed9a337414d5c8eada8fa8b9632e18751f5ce6ed587806e91_blur.jpg,2.126984,0.0,blurring,moob25,2022-04-28_00h24.07.114,ratings,2022.1.1,Win32,60.0240096
-0.720973783,11.854,0.065543071,10.754,0,119,119,490,1,818_877aae033c31e3bbca4486321a5307f87cf53c576c546462d3daf194_circblurint.jpg,-1.277584,0.619436,circularblurringint,moob25,2022-04-28_00h24.07.114,ratings,2022.1.1,Win32,60.0240096
0.374531835,1.98,-0.79588015,2.849,0,120,120,304,1,453_54f106fd1d4b65fa4aa347407127fc30d49f791e81aee3a0bbe44489_circblurint.jpg,2.222224,0.0,circularblurringint,moob25,2022-04-28_00h24.07.114,ratings,2022.1.1,Win32,60.0240096
-1.610486891,1.454,1.507490637,2.24,0,121,121,406,1,686_6745b57686ad5d1bd6cf3e7ed5bc0243a154f8939e88e30321dfcfdb_circblurint.jpg,-1.523808,3.650792,circularblurringint,moob25,2022-04-28_00h24.07.114,ratings,2022.1.1,Win32,60.0240096
-0.028089888,1.572,-0.280898876,2.431,0,122,122,567,1,1037_e2eb929a6de79a63ce6cfe5321fcb74a203b134e4094932d90b01d99_blur.jpg,2.651956,0.0,blurring,moob25,2022-04-28_00h24.07.114,ratings,2022.1.1,Win32,60.0240096
-0.346441948,10.523,-0.243445693,6.529,0,123,123,291,1,442_7449d79dae5d652af9b2429872cabdef938646ba024db2f431b3b28d_blur.jpg,1.619048,0.126984,blurring,moob25,2022-04-28_00h24.07.114,ratings,2022.1.1,Win32,60.0240096
0.833333333,11.136,1.629213483,6.224,0,124,124,456,1,720_483c541c48959a597fcf44320941afaf8b7695105f90d65b5f6b30f2_orig.jpg,2.158732,-0.2539684,original,moob25,2022-04-28_00h24.07.114,ratings,2022.1.1,Win32,60.0240096
-0.056179775,21.355,1.629213483,26.594,0,125,125,142,1,353_44e285740cb41818482ac93fc5fbd72c18029444a1d7506c9fc053e7_circblurint.jpg,-3.232676,-0.87108,circularblurringint,moob25,2022-04-28_00h24.07.114,ratings,2022.1.1,Win32,60.0240096
-1.235955056,1.872,0.402621723,2.562,0,126,126,351,1,498_305b74cdc4784d9d25e72724302e5402def70177ea31ae7e25fab66b_blur.jpg,3.04762,-0.444444,blurring,moob25,2022-04-28_00h24.07.114,ratings,2022.1.1,Win32,60.0240096
-1.582397004,4.504,1.75093633,2.687,0,127,127,331,1,482_a1cd28915c5044c018195ab0fff10dcc95e385246b045a7cd4463ff7_bw.jpg,-3.361852,-1.555612,blackwhite,moob25,2022-04-28_00h24.07.114,ratings,2022.1.1,Win32,60.0240096
-0.720973783,2.961,0.102996255,3.81,0,128,128,585,1,1225_59c67a821456f2cce3e5acf66d7f00076bd02caffc984c1eb0df794e_blur.jpg,-0.444444,3.809524,blurring,moob25,2022-04-28_00h24.07.114,ratings,2022.1.1,Win32,60.0240096
-0.43071161,2.405,-0.31835206,3.273,0,129,129,434,1,694_f80f33613b268beffd6c044537cf3b44a84683d6e889bc37b8e9c34b_edges.jpg,-0.3785616,3.34728,edges,moob25,2022-04-28_00h24.07.114,ratings,2022.1.1,Win32,60.0240096
-1.460674157,2.589,1.685393258,3.725,0,130,130,462,1,736_bb85db1bcda8eb34299aa5791ac65a0a7c343266eb2d6e6e328ec0e1_orig.jpg,3.650792,-0.03174604,original,moob25,2022-04-28_00h24.07.114,ratings,2022.1.1,Win32,60.0240096
1.11423221,3.433,0.655430712,4.465,0,131,131,228,1,407_578d31d32e806706dde2563213f130b90e621abfed0e47ecabd85d27_orig.jpg,3.5873,-0.444444,original,moob25,2022-04-28_00h24.07.114,ratings,2022.1.1,Win32,60.0240096
-0.402621723,11.942,-0.402621723,13.131,0,132,132,257,1,416_5eb54976bb41ce2a6d129ef985f792e716f010fb9b69b15f50f5d2db_circblurext.jpg,-2.58766,2.602972,circularblurringext,moob25,2022-04-28_00h24.07.114,ratings,2022.1.1,Win32,60.0240096
1.460674157,10.723,1.039325843,9.371,0,133,133,186,1,369_c99797771115d7627d4abe3415f814497288f91a7be1a04c17c776b9_orig.jpg,3.619824,-0.174216,original,moob25,2022-04-28_00h24.07.114,ratings,2022.1.1,Win32,60.0240096
-0.496254682,1.226,-0.299625468,2.147,0,134,134,350,1,498_305b74cdc4784d9d25e72724302e5402def70177ea31ae7e25fab66b_edges.jpg,3.04762,-0.444444,edges,moob25,2022-04-28_00h24.07.114,ratings,2022.1.1,Win32,60.0240096
2.378277154,14.356,1.956928839,15.799,0,135,135,19,1,48_2cc936b2483ab2944c9158e163342b874ef6c1492fd8fca08c0e096e_bw.jpg,-1.264224,-0.779604,blackwhite,moob25,2022-04-28_00h24.07.114,ratings,2022.1.1,Win32,60.0240096
0.571161049,1.922,0.571161049,9.703,0,136,136,447,1,709_69c01dcde028a2a1a913f1a2a5026ae1748484f75c89217a040c6791_blur.jpg,1.432444,-0.01935732,blurring,moob25,2022-04-28_00h24.07.114,ratings,2022.1.1,Win32,60.0240096
-1.601123596,3.731,0.692883895,26.404,0,137,137,160,1,358_157f8ac929713531a15b1ecf115e7b659cb90e83d675251e368d165f_circblurint.jpg,-3.777776,-0.571428,circularblurringint,moob25,2022-04-28_00h24.07.114,ratings,2022.1.1,Win32,60.0240096
1.123595506,16.54,0.74906367,17.746,0,138,138,117,1,332_4d584229bdae2e1782f77f0e953e528f13c3dfa79b4b94736c0310fa_blur.jpg,3.157348,0.483092,blurring,moob25,2022-04-28_00h24.07.114,ratings,2022.1.1,Win32,60.0240096
-0.945692884,2.921,-0.065543071,7.694,0,139,139,500,1,854_081a8409e4d6d10923b2dedcc16a3fca405fcd602e55a20d84cac69d_edges.jpg,3.088264,1.21538,edges,moob25,2022-04-28_00h24.07.114,ratings,2022.1.1,Win32,60.0240096
-1.367041199,1.873,1.357677903,3.331,0,140,140,493,1,824_b1d91cc824ce0d3d383d3147da88d3d6dbaf6be918bab79e3ec8f501_bw.jpg,-3.645176,-1.432784,blackwhite,moob25,2022-04-28_00h24.07.114,ratings,2022.1.1,Win32,60.0240096
-1.207865169,2.363,1.582397004,3.959,0,141,141,167,1,361_b5541309527dc3c2422f45a95ebb0ed32005e6fe10d0489a1ff1fbdc_circblurext.jpg,-3.987612,-0.2516452,circularblurringext,moob25,2022-04-28_00h24.07.114,ratings,2022.1.1,Win32,60.0240096
0.411985019,5.281,0.561797753,9.824,0,142,142,190,1,369_c99797771115d7627d4abe3415f814497288f91a7be1a04c17c776b9_circblurint.jpg,3.619824,-0.174216,circularblurringint,moob25,2022-04-28_00h24.07.114,ratings,2022.1.1,Win32,60.0240096
1.498127341,5.505,1.367041199,4.01,0,143,143,144,1,354_e46c3ec6fb00773f64f2bcd212385f253c389808fe724b7cf8611051_orig.jpg,2.018292,0.0,original,moob25,2022-04-28_00h24.07.114,ratings,2022.1.1,Win32,60.0240096
-0.393258427,1.855,-0.421348315,2.63,0,144,144,573,1,1039_d64da8480fc6e94dcdc513237d600570ae0b9fe48795ac6a8b2d29a7_blur.jpg,-2.507936,-1.142856,blurring,moob25,2022-04-28_00h24.07.114,ratings,2022.1.1,Win32,60.0240096
-1.488764045,1.587,0.608614232,2.159,0,145,145,415,1,692_7d7eaf20e6de8956f0fca7500ace97a8599aa8b605a7d690cdb28724_bw.jpg,-2.063492,-1.26984,blackwhite,moob25,2022-04-28_00h24.07.114,ratings,2022.1.1,Win32,60.0240096
-1.06741573,10.143,0.009363296,15.606,0,146,146,100,1,267_792043debad81ce271cec5b3c3bd9d264efc13f362bec9c7a3f72fe7_circblurint.jpg,1.980616,0.2107036,circularblurringint,moob25,2022-04-28_00h24.07.114,ratings,2022.1.1,Win32,60.0240096
0.79588015,9.488,-1.320224719,10.738,0,147,147,480,1,759_95e1c46ed9a337414d5c8eada8fa8b9632e18751f5ce6ed587806e91_orig.jpg,2.126984,0.0,original,moob25,2022-04-28_00h24.07.114,ratings,2022.1.1,Win32,60.0240096
-0.496254682,3.277,-0.187265918,5.338,0,148,148,545,1,1005_b980c0747d20935bc63cc27a9e05ce2ff5bae98f859872ec48edd7f5_circblurext.jpg,3.428572,-0.476192,circularblurringext,moob25,2022-04-28_00h24.07.114,ratings,2022.1.1,Win32,60.0240096
0.280898876,20.437,-0.720973783,21.206,0,149,149,94,1,258_d26019382777d2159a974a7654923e71598135ce2cd710cea1f92865_circblurint.jpg,3.497684,-0.61104,circularblurringint,moob25,2022-04-28_00h24.07.114,ratings,2022.1.1,Win32,60.0240096
1.657303371,1.098,1.301498127,1.832,0,150,150,592,1,1228_557412d34d6a70b7c5d222e030aa485b351a4574e8ba1a3112d1d13d_circblurint.jpg,2.137444,0.703464,circularblurringint,moob25,2022-04-28_00h24.07.114,ratings,2022.1.1,Win32,60.0240096
-0.15917603,2.212,-0.365168539,4.822,0,151,151,98,1,267_792043debad81ce271cec5b3c3bd9d264efc13f362bec9c7a3f72fe7_edges.jpg,1.980616,0.2107036,edges,moob25,2022-04-28_00h24.07.114,ratings,2022.1.1,Win32,60.0240096
-1.058052434,1.674,1.058052434,4.387,0,152,152,537,1,986_a77edb21e78bc3a6aa7406517824596b3496ad6c657b6befb84cf370_blur.jpg,-3.906316,-0.60496,blurring,moob25,2022-04-28_00h24.07.114,ratings,2022.1.1,Win32,60.0240096
-0.028089888,4.755,-0.112359551,5.905,0,153,153,471,1,741_2b218fb015e3da83db73cacdb52e61e0c2534c1fe255bb1c5c74d47f_blur.jpg,3.140096,0.448584,blurring,moob25,2022-04-28_00h24.07.114,ratings,2022.1.1,Win32,60.0240096
-0.299625468,3.763,-0.440074906,4.531,0,154,154,128,1,349_18d92ef5c21ca70a3dd237aad251594e1688bbe01d8cff37b89c46b8_edges.jpg,-2.74874,-1.258228,edges,moob25,2022-04-28_00h24.07.114,ratings,2022.1.1,Win32,60.0240096
-0.898876404,1.481,-0.074906367,2.14,0,155,155,413,1,687_e3b018945792a574962235c88c553b7c318c75eec2596478e8a7b877_circblurext.jpg,3.63918,-0.42586,circularblurringext,moob25,2022-04-28_00h24.07.114,ratings,2022.1.1,Win32,60.0240096
0.112359551,97.142,0.74906367,121.488,0,156,156,580,1,1061_665178b9cb0bc869cc2e2b68def4838db04e66f9531098fb75875a09_circblurint.jpg,0.3492064,-0.3174604,circularblurringint,moob25,2022-04-28_00h24.07.114,ratings,2022.1.1,Win32,60.0240096
0.458801498,11.337,-1.170411985,12.007,0,157,157,544,1,1005_b980c0747d20935bc63cc27a9e05ce2ff5bae98f859872ec48edd7f5_circblurint.jpg,3.428572,-0.476192,circularblurringint,moob25,2022-04-28_00h24.07.114,ratings,2022.1.1,Win32,60.0240096
-2.200374532,3.892,0.842696629,2.862,0,158,158,241,1,411_adfd0d5782129756321ff671d0cfb712528504c66c863df11aabd1e7_bw.jpg,-3.392332,-1.369576,blackwhite,moob25,2022-04-28_00h24.07.114,ratings,2022.1.1,Win32,60.0240096
-1.020599251,4.988,1.104868914,5.638,0,159,159,419,1,692_7d7eaf20e6de8956f0fca7500ace97a8599aa8b605a7d690cdb28724_circblurext.jpg,-2.063492,-1.26984,circularblurringext,moob25,2022-04-28_00h24.07.114,ratings,2022.1.1,Win32,60.0240096
1.104868914,1.481,1.22659176,2.327,0,160,160,425,1,692_e3e3bf88684fbbcdb9849a4147f9e2fcd39b0f083554a829aca4e9fa_circblurext.jpg,-0.44522,3.135888,circularblurringext,moob25,2022-04-28_00h24.07.114,ratings,2022.1.1,Win32,60.0240096
-0.571161049,1.697,-0.468164794,2.445,0,161,161,488,1,818_877aae033c31e3bbca4486321a5307f87cf53c576c546462d3daf194_edges.jpg,-1.277584,0.619436,edges,moob25,2022-04-28_00h24.07.114,ratings,2022.1.1,Win32,60.0240096
1.760299625,1.572,1.235955056,2.455,0,162,162,76,1,236_f645730e1eb06155418c9a571329cc7fa320654fcaaedf1048b5cc11_circblurint.jpg,2.253968,0.0,circularblurringint,moob25,2022-04-28_00h24.07.114,ratings,2022.1.1,Win32,60.0240096
1.161048689,2.056,1.217228464,4.589,0,163,163,34,1,60_ad52063167538de24f94d7dfd04808cb94cf8f426c40871d2f126505_circblurint.jpg,2.158732,0.0,circularblurringint,moob25,2022-04-28_00h24.07.114,ratings,2022.1.1,Win32,60.0240096
0.308988764,2.189,-0.655430712,4.571,0,164,164,61,1,156_08e8cf8f04630e9213e610580de73f51572d1d589878648700bae4dc_bw.jpg,2.222224,0.0,blackwhite,moob25,2022-04-28_00h24.07.114,ratings,2022.1.1,Win32,60.0240096
0.346441948,8.392,0.411985019,11.594,0,165,165,516,1,860_05c4e22518a30d3d2add458a8fc6488f87b9b02dd8e385ded939f025_orig.jpg,1.955092,0.3097172,original,moob25,2022-04-28_00h24.07.114,ratings,2022.1.1,Win32,60.0240096
-2.116104869,6.172,1.357677903,7.021,0,166,166,334,1,482_a1cd28915c5044c018195ab0fff10dcc95e385246b045a7cd4463ff7_circblurint.jpg,-3.361852,-1.555612,circularblurringint,moob25,2022-04-28_00h24.07.114,ratings,2022.1.1,Win32,60.0240096
-0.805243446,4.81,1.54494382,5.629,0,167,167,511,1,858_2f6539ee36aba48c38dc716d4f7c3ae93367d6ddf23ab41745d4172c_bw.jpg,0.0623832,0.176752,blackwhite,moob25,2022-04-28_00h24.07.114,ratings,2022.1.1,Win32,60.0240096
0.056179775,3.774,0.355805243,7.446,0,168,168,341,1,492_a1a4d288d3bc486c83c3b6a835c42891989f5ba781633932298a7676_circblurext.jpg,3.406892,-0.44522,circularblurringext,moob25,2022-04-28_00h24.07.114,ratings,2022.1.1,Win32,60.0240096
-0.102996255,2.672,0.149812734,3.604,0,169,169,35,1,60_ad52063167538de24f94d7dfd04808cb94cf8f426c40871d2f126505_circblurext.jpg,2.158732,0.0,circularblurringext,moob25,2022-04-28_00h24.07.114,ratings,2022.1.1,Win32,60.0240096
-1.582397004,5.848,0.533707865,3.774,0,170,170,259,1,416_8a1f874e0057d67a4e6955865ba88b2d8ce2c8b4469589307687a723_bw.jpg,-1.753336,3.088264,blackwhite,moob25,2022-04-28_00h24.07.114,ratings,2022.1.1,Win32,60.0240096
-1.058052434,4.148,1.956928839,2.888,0,171,171,436,1,694_f80f33613b268beffd6c044537cf3b44a84683d6e889bc37b8e9c34b_circblurint.jpg,-0.3785616,3.34728,circularblurringint,moob25,2022-04-28_00h24.07.114,ratings,2022.1.1,Win32,60.0240096
-1.404494382,7.121,1.75093633,3.723,0,172,172,329,1,468_8b69b13120daebadd8a4a3166e1419f2404395cba231307a4efa9fde_circblurext.jpg,2.031744,0.2539684,circularblurringext,moob25,2022-04-28_00h24.07.114,ratings,2022.1.1,Win32,60.0240096
-0.121722846,1.678,-0.121722846,4.705,0,173,173,443,1,700_59cb565f134f1afd066d7b6d936c6511b7cb76de0e9cbb5ce15124ad_circblurext.jpg,0.0,0.0,circularblurringext,moob25,2022-04-28_00h24.07.114,ratings,2022.1.1,Win32,60.0240096
-0.926966292,1.341,0.786516854,6.022,0,174,174,418,1,692_7d7eaf20e6de8956f0fca7500ace97a8599aa8b605a7d690cdb28724_circblurint.jpg,-2.063492,-1.26984,circularblurringint,moob25,2022-04-28_00h24.07.114,ratings,2022.1.1,Win32,60.0240096
-0.093632959,2.38,-0.028089888,3.189,0,175,175,521,1,860_05c4e22518a30d3d2add458a8fc6488f87b9b02dd8e385ded939f025_circblurext.jpg,1.955092,0.3097172,circularblurringext,moob25,2022-04-28_00h24.07.114,ratings,2022.1.1,Win32,60.0240096
-1.554307116,6.088,1.395131086,4.406,0,176,176,157,1,358_157f8ac929713531a15b1ecf115e7b659cb90e83d675251e368d165f_bw.jpg,-3.777776,-0.571428,blackwhite,moob25,2022-04-28_00h24.07.114,ratings,2022.1.1,Win32,60.0240096
-1.367041199,1.271,1.235955056,2.443,0,177,177,534,1,986_a77edb21e78bc3a6aa7406517824596b3496ad6c657b6befb84cf370_orig.jpg,-3.906316,-0.60496,original,moob25,2022-04-28_00h24.07.114,ratings,2022.1.1,Win32,60.0240096
-0.711610487,1.642,0.299625468,3.839,0,178,178,16,1,39_2fafccaa4dc69045a05845f59c6b3cd2edcf7e0e0c108b24e553afe0_circblurint.jpg,2.022756,0.463548,circularblurringint,moob25,2022-04-28_00h24.07.114,ratings,2022.1.1,Win32,60.0240096
0.365168539,1.992,-0.842696629,6.473,0,179,179,185,1,369_98db62a1bdabfd1bc551180da6658005b461585cd21614633cf76470_circblurext.jpg,2.190476,-0.03174604,circularblurringext,moob25,2022-04-28_00h24.07.114,ratings,2022.1.1,Win32,60.0240096
-1.142322097,1.488,0.786516854,2.173,0,180,180,247,1,414_0187bdf7007109b487865b6a9d388997a6817acf052a6a7cdd5b39d9_bw.jpg,-2.786708,-1.133056,blackwhite,moob25,2022-04-28_00h24.07.114,ratings,2022.1.1,Win32,60.0240096
-0.514981273,1.388,-0.290262172,2.098,0,181,181,248,1,414_0187bdf7007109b487865b6a9d388997a6817acf052a6a7cdd5b39d9_edges.jpg,-2.786708,-1.133056,edges,moob25,2022-04-28_00h24.07.114,ratings,2022.1.1,Win32,60.0240096
0.43071161,13.605,0.580524345,14.905,0,182,182,517,1,860_05c4e22518a30d3d2add458a8fc6488f87b9b02dd8e385ded939f025_bw.jpg,1.955092,0.3097172,blackwhite,moob25,2022-04-28_00h24.07.114,ratings,2022.1.1,Win32,60.0240096
-1.282771536,1.53,0.880149813,3.432,0,183,183,126,1,349_18d92ef5c21ca70a3dd237aad251594e1688bbe01d8cff37b89c46b8_orig.jpg,-2.74874,-1.258228,original,moob25,2022-04-28_00h24.07.114,ratings,2022.1.1,Win32,60.0240096
0.224719101,7.587,0.440074906,4.877,0,184,184,10,1,28_6318543b74eeb646a1735477ebc023fdc9ac3849bc0db1957c272a26_circblurint.jpg,2.811244,-0.74584,circularblurringint,moob25,2022-04-28_00h24.07.114,ratings,2022.1.1,Win32,60.0240096
-1.132958801,5.524,2.088014981,7.09,0,185,185,349,1,498_305b74cdc4784d9d25e72724302e5402def70177ea31ae7e25fab66b_bw.jpg,3.04762,-0.444444,blackwhite,moob25,2022-04-28_00h24.07.114,ratings,2022.1.1,Win32,60.0240096
-0.702247191,2.826,1.132958801,4.122,0,186,186,466,1,736_bb85db1bcda8eb34299aa5791ac65a0a7c343266eb2d6e6e328ec0e1_circblurint.jpg,3.650792,-0.03174604,circularblurringint,moob25,2022-04-28_00h24.07.114,ratings,2022.1.1,Win32,60.0240096
-1.43258427,2.279,1.638576779,3.544,0,187,187,138,1,353_44e285740cb41818482ac93fc5fbd72c18029444a1d7506c9fc053e7_orig.jpg,-3.232676,-0.87108,original,moob25,2022-04-28_00h24.07.114,ratings,2022.1.1,Win32,60.0240096
-1.001872659,15.996,1.020599251,17.104,0,188,188,385,1,646_577760d718dab44c6f04d77408c5644a120065ce07a9503957d0850a_bw.jpg,-2.690668,2.61324,blackwhite,moob25,2022-04-28_00h24.07.114,ratings,2022.1.1,Win32,60.0240096
0.018726592,41.836,-0.739700375,38.762,0,189,189,252,1,416_5eb54976bb41ce2a6d129ef985f792e716f010fb9b69b15f50f5d2db_orig.jpg,-2.58766,2.602972,original,moob25,2022-04-28_00h24.07.114,ratings,2022.1.1,Win32,60.0240096
-2.34082397,2.155,0.402621723,2.839,0,190,190,364,1,508_a7a9519cdc7aad6844030f4e6cd96cffd1b9c49b71e20ea52789bda2_circblurint.jpg,-3.000388,-1.29694,circularblurringint,moob25,2022-04-28_00h24.07.114,ratings,2022.1.1,Win32,60.0240096
1.498127341,1.856,0.187265918,3.655,0,191,191,181,1,369_98db62a1bdabfd1bc551180da6658005b461585cd21614633cf76470_bw.jpg,2.190476,-0.03174604,blackwhite,moob25,2022-04-28_00h24.07.114,ratings,2022.1.1,Win32,60.0240096
-1.020599251,2.273,0.421348315,2.842,0,192,192,273,1,434_ba36d91204d7e578001f6a545d7501e65d209554def5a3c8b7583825_blur.jpg,-3.523808,1.428572,blurring,moob25,2022-04-28_00h24.07.114,ratings,2022.1.1,Win32,60.0240096
-0.271535581,6.26,-0.383895131,2.544,0,193,193,55,1,137_0e6a04243c0a42a5e2528a2d181255ca2a4b7bd6e7978c5c2059c69f_bw.jpg,-0.95238,2.095236,blackwhite,moob25,2022-04-28_00h24.07.114,ratings,2022.1.1,Win32,60.0240096
1.338951311,2.103,0.252808989,5.043,0,194,194,28,1,59_8568373b727f29d67ba6ce4c360dd918c8b08b13495fca56bdda5e82_circblurint.jpg,2.064896,0.505688,circularblurringint,moob25,2022-04-28_00h24.07.114,ratings,2022.1.1,Win32,60.0240096
-0.617977528,3.196,-0.383895131,3.922,0,195,195,8,1,28_6318543b74eeb646a1735477ebc023fdc9ac3849bc0db1957c272a26_edges.jpg,2.811244,-0.74584,edges,moob25,2022-04-28_00h24.07.114,ratings,2022.1.1,Win32,60.0240096
-0.889513109,21.526,0.449438202,22.691,0,196,196,587,1,1225_59c67a821456f2cce3e5acf66d7f00076bd02caffc984c1eb0df794e_circblurext.jpg,-0.444444,3.809524,circularblurringext,moob25,2022-04-28_00h24.07.114,ratings,2022.1.1,Win32,60.0240096
0.63670412,1.904,-0.95505618,4.157,0,197,197,547,1,1010_06d15f44b979c086561137000ec070ba4cd479856f92840a7850b2bf_bw.jpg,0.189786,-0.189786,blackwhite,moob25,2022-04-28_00h24.07.114,ratings,2022.1.1,Win32,60.0240096
-1.526217228,1.74,0.327715356,4.703,0,198,198,323,1,460_e06b3af7ff2f2bfb5f9b6e3d5dc25b9aaa40b84823fac8fd934621bd_circblurext.jpg,-3.430992,-1.607468,circularblurringext,moob25,2022-04-28_00h24.07.114,ratings,2022.1.1,Win32,60.0240096
-0.421348315,4.807,1.198501873,6.206,0,199,199,400,1,683_a004ad18331da968da5debdd15e1447dd7748750af0bc6c57b844200_circblurint.jpg,-2.91956,2.466524,circularblurringint,moob25,2022-04-28_00h24.07.114,ratings,2022.1.1,Win32,60.0240096
-0.449438202,12.091,-0.346441948,14.52,0,200,200,437,1,694_f80f33613b268beffd6c044537cf3b44a84683d6e889bc37b8e9c34b_circblurext.jpg,-0.3785616,3.34728,circularblurringext,moob25,2022-04-28_00h24.07.114,ratings,2022.1.1,Win32,60.0240096
0.140449438,1.607,0.065543071,2.909,0,201,201,339,1,492_a1a4d288d3bc486c83c3b6a835c42891989f5ba781633932298a7676_blur.jpg,3.406892,-0.44522,blurring,moob25,2022-04-28_00h24.07.114,ratings,2022.1.1,Win32,60.0240096
2.462546816,9.022,2.134831461,13.657,0,202,202,72,1,236_f645730e1eb06155418c9a571329cc7fa320654fcaaedf1048b5cc11_orig.jpg,2.253968,0.0,original,moob25,2022-04-28_00h24.07.114,ratings,2022.1.1,Win32,60.0240096
-0.074906367,12.66,-0.271535581,13.504,0,203,203,569,1,1037_e2eb929a6de79a63ce6cfe5321fcb74a203b134e4094932d90b01d99_circblurext.jpg,2.651956,0.0,circularblurringext,moob25,2022-04-28_00h24.07.114,ratings,2022.1.1,Win32,60.0240096
0.533707865,9.806,0.018726592,8.208,0,204,204,277,1,440_9bf7e8609729bf888835168834da6c3ff30b75d0d4f36e2ee6918bcc_bw.jpg,-2.284164,2.710028,blackwhite,moob25,2022-04-28_00h24.07.114,ratings,2022.1.1,Win32,60.0240096
-0.786516854,1.895,0.374531835,4.298,0,205,205,209,1,381_5935a9f9796adce2f1539af6c75bcdc0c80d847a2ce9b77cf59b7672_circblurext.jpg,-1.327432,-0.442476,circularblurringext,moob25,2022-04-28_00h24.07.114,ratings,2022.1.1,Win32,60.0240096
-0.533707865,2.057,1.189138577,3.877,0,206,206,15,1,39_2fafccaa4dc69045a05845f59c6b3cd2edcf7e0e0c108b24e553afe0_blur.jpg,2.022756,0.463548,blurring,moob25,2022-04-28_00h24.07.114,ratings,2022.1.1,Win32,60.0240096
0.299625468,9.09,1.657303371,13.09,0,207,207,432,1,694_f80f33613b268beffd6c044537cf3b44a84683d6e889bc37b8e9c34b_orig.jpg,-0.3785616,3.34728,original,moob25,2022-04-28_00h24.07.114,ratings,2022.1.1,Win32,60.0240096
-0.056179775,1.755,-0.280898876,2.912,0,208,208,551,1,1010_06d15f44b979c086561137000ec070ba4cd479856f92840a7850b2bf_circblurext.jpg,0.189786,-0.189786,circularblurringext,moob25,2022-04-28_00h24.07.114,ratings,2022.1.1,Win32,60.0240096
-0.486891386,2.72,-0.280898876,4.508,0,209,209,451,1,716_2ab64478147184c4df720a52cf621875addc9007cb2967e4a9a88909_bw.jpg,2.428484,0.0,blackwhite,moob25,2022-04-28_00h24.07.114,ratings,2022.1.1,Win32,60.0240096
-0.262172285,4.755,0.393258427,2.048,0,210,210,412,1,687_e3b018945792a574962235c88c553b7c318c75eec2596478e8a7b877_circblurint.jpg,3.63918,-0.42586,circularblurringint,moob25,2022-04-28_00h24.07.114,ratings,2022.1.1,Win32,60.0240096
-0.421348315,1.842,-0.346441948,2.638,0,211,211,236,1,410_9633c4ff6e8888fcfca59a60ca86e9606d3e0736500a254101bdf295_edges.jpg,-0.3677892,2.981028,edges,moob25,2022-04-28_00h24.07.114,ratings,2022.1.1,Win32,60.0240096
0.374531835,4.573,0.15917603,5.489,0,212,212,22,1,48_2cc936b2483ab2944c9158e163342b874ef6c1492fd8fca08c0e096e_circblurint.jpg,-1.264224,-0.779604,circularblurringint,moob25,2022-04-28_00h24.07.114,ratings,2022.1.1,Win32,60.0240096
-0.374531835,1.176,-0.402621723,2.043,0,213,213,398,1,683_a004ad18331da968da5debdd15e1447dd7748750af0bc6c57b844200_edges.jpg,-2.91956,2.466524,edges,moob25,2022-04-28_00h24.07.114,ratings,2022.1.1,Win32,60.0240096
-1.451310861,3.107,1.610486891,3.872,0,214,214,163,1,361_b5541309527dc3c2422f45a95ebb0ed32005e6fe10d0489a1ff1fbdc_bw.jpg,-3.987612,-0.2516452,blackwhite,moob25,2022-04-28_00h24.07.114,ratings,2022.1.1,Win32,60.0240096
-1.001872659,4.439,0.440074906,5.565,0,215,215,313,1,459_46e25de472bb056cb470716d30937415f7344bfc4354d6eb710d8c9f_bw.jpg,0.03174604,0.0,blackwhite,moob25,2022-04-28_00h24.07.114,ratings,2022.1.1,Win32,60.0240096
-0.852059925,44.811,0.196629213,45.706,0,216,216,389,1,646_577760d718dab44c6f04d77408c5644a120065ce07a9503957d0850a_circblurext.jpg,-2.690668,2.61324,circularblurringext,moob25,2022-04-28_00h24.07.114,ratings,2022.1.1,Win32,60.0240096
0.252808989,25.056,0.31835206,25.928,0,217,217,70,1,172_c641c6c56ca6b594b773084e1363c852abdb65f988d7ff802ee503f2_circblurint.jpg,0.379572,0.01725328,circularblurringint,moob25,2022-04-28_00h24.07.114,ratings,2022.1.1,Win32,60.0240096
-0.009363296,4.053,0.121722846,3.264,0,218,218,458,1,720_483c541c48959a597fcf44320941afaf8b7695105f90d65b5f6b30f2_edges.jpg,2.158732,-0.2539684,edges,moob25,2022-04-28_00h24.07.114,ratings,2022.1.1,Win32,60.0240096
-0.973782772,1.442,0.926966292,2.559,0,219,219,531,1,915_dc9fd40a3b5d64a180833a7bac86e7556c24f681f473fe255e41f936_blur.jpg,-3.09294,-0.918696,blurring,moob25,2022-04-28_00h24.07.114,ratings,2022.1.1,Win32,60.0240096
0.720973783,1.174,-0.056179775,1.722,0,220,220,459,1,720_483c541c48959a597fcf44320941afaf8b7695105f90d65b5f6b30f2_blur.jpg,2.158732,-0.2539684,blurring,moob25,2022-04-28_00h24.07.114,ratings,2022.1.1,Win32,60.0240096
-1.629213483,1.464,1.685393258,3.474,0,221,221,492,1,824_b1d91cc824ce0d3d383d3147da88d3d6dbaf6be918bab79e3ec8f501_orig.jpg,-3.645176,-1.432784,original,moob25,2022-04-28_00h24.07.114,ratings,2022.1.1,Win32,60.0240096
-0.168539326,4.556,0.15917603,3.632,0,222,222,147,1,354_e46c3ec6fb00773f64f2bcd212385f253c389808fe724b7cf8611051_blur.jpg,2.018292,0.0,blurring,moob25,2022-04-28_00h24.07.114,ratings,2022.1.1,Win32,60.0240096
-0.346441948,2.074,0.271535581,4.074,0,223,223,84,1,243_beddb302dcb21071d88c8d2cab07002050d36b3001ef28f89389fa56_orig.jpg,-0.3450656,-0.2070392,original,moob25,2022-04-28_00h24.07.114,ratings,2022.1.1,Win32,60.0240096
-0.262172285,1.806,-0.112359551,2.587,0,224,224,591,1,1228_557412d34d6a70b7c5d222e030aa485b351a4574e8ba1a3112d1d13d_blur.jpg,2.137444,0.703464,blurring,moob25,2022-04-28_00h24.07.114,ratings,2022.1.1,Win32,60.0240096
-0.327715356,1.205,-0.346441948,1.936,0,225,225,326,1,468_8b69b13120daebadd8a4a3166e1419f2404395cba231307a4efa9fde_edges.jpg,2.031744,0.2539684,edges,moob25,2022-04-28_00h24.07.114,ratings,2022.1.1,Win32,60.0240096
-1.507490637,1.964,-0.627340824,5.246,0,226,226,395,1,663_aaf52107fe3a86392530d88b34e86f9d2b6820714cad98d1e3c2cb67_circblurext.jpg,2.58766,0.0918696,circularblurringext,moob25,2022-04-28_00h24.07.114,ratings,2022.1.1,Win32,60.0240096
0.009363296,19.209,-0.252808989,20.421,0,227,227,179,1,368_6507b94d7d0199f14efd3706db30c9c44b96085f84e9cc7792e3e0ae_circblurext.jpg,1.959544,0.400336,circularblurringext,moob25,2022-04-28_00h24.07.114,ratings,2022.1.1,Win32,60.0240096
-1.095505618,1.505,1.245318352,5.196,0,228,228,539,1,986_a77edb21e78bc3a6aa7406517824596b3496ad6c657b6befb84cf370_circblurext.jpg,-3.906316,-0.60496,circularblurringext,moob25,2022-04-28_00h24.07.114,ratings,2022.1.1,Win32,60.0240096
-0.346441948,1.79,-0.346441948,2.454,0,229,229,93,1,258_d26019382777d2159a974a7654923e71598135ce2cd710cea1f92865_blur.jpg,3.497684,-0.61104,blurring,moob25,2022-04-28_00h24.07.114,ratings,2022.1.1,Win32,60.0240096
-0.833333333,1.489,0.168539326,2.281,0,230,230,17,1,39_2fafccaa4dc69045a05845f59c6b3cd2edcf7e0e0c108b24e553afe0_circblurext.jpg,2.022756,0.463548,circularblurringext,moob25,2022-04-28_00h24.07.114,ratings,2022.1.1,Win32,60.0240096
1.217228464,5.29,0.870786517,3.23,0,231,231,36,1,82_43f4d5aec7c2e5bd495473f6708a0f2d47c9fe34e1fe9436646cb036_orig.jpg,2.022756,0.505688,original,moob25,2022-04-28_00h24.07.114,ratings,2022.1.1,Win32,60.0240096
0.084269663,10.076,0.337078652,10.977,0,232,232,9,1,28_6318543b74eeb646a1735477ebc023fdc9ac3849bc0db1957c272a26_blur.jpg,2.811244,-0.74584,blurring,moob25,2022-04-28_00h24.07.114,ratings,2022.1.1,Win32,60.0240096
-0.215355805,1.972,-0.252808989,2.472,0,233,233,230,1,407_578d31d32e806706dde2563213f130b90e621abfed0e47ecabd85d27_edges.jpg,3.5873,-0.444444,edges,moob25,2022-04-28_00h24.07.114,ratings,2022.1.1,Win32,60.0240096
1.189138577,1.64,0.355805243,5.043,0,234,234,448,1,709_69c01dcde028a2a1a913f1a2a5026ae1748484f75c89217a040c6791_circblurint.jpg,1.432444,-0.01935732,circularblurringint,moob25,2022-04-28_00h24.07.114,ratings,2022.1.1,Win32,60.0240096
0.63670412,2.007,-0.95505618,4.463,0,235,235,508,1,855_66d893451dfd1e7615132071c6c8a82b02dc2b37781cd89400883b26_circblurint.jpg,2.69484,0.2143624,circularblurringint,moob25,2022-04-28_00h24.07.114,ratings,2022.1.1,Win32,60.0240096
-0.355805243,31.089,-0.290262172,31.774,0,236,236,491,1,818_877aae033c31e3bbca4486321a5307f87cf53c576c546462d3daf194_circblurext.jpg,-1.277584,0.619436,circularblurringext,moob25,2022-04-28_00h24.07.114,ratings,2022.1.1,Win32,60.0240096
-1.039325843,1.29,0.646067416,3.471,0,237,237,353,1,498_305b74cdc4784d9d25e72724302e5402def70177ea31ae7e25fab66b_circblurext.jpg,3.04762,-0.444444,circularblurringext,moob25,2022-04-28_00h24.07.114,ratings,2022.1.1,Win32,60.0240096
-0.383895131,9.413,-0.224719101,10.009,0,238,238,111,1,293_3dfdfafc0c6a54b2da7453750ac281f7718c0b3337b0a74c4563d6bd_blur.jpg,-2.574524,2.632596,blurring,moob25,2022-04-28_00h24.07.114,ratings,2022.1.1,Win32,60.0240096
-0.945692884,6.755,0.47752809,4.406,0,239,239,264,1,431_ab5a1dbbe9292ac7f74e276cdabcd372e2c1f852ff34bf7cc6646ef8_orig.jpg,3.102584,0.354334,original,moob25,2022-04-28_00h24.07.114,ratings,2022.1.1,Win32,60.0240096
-0.440074906,1.376,-0.327715356,1.871,0,240,240,572,1,1039_d64da8480fc6e94dcdc513237d600570ae0b9fe48795ac6a8b2d29a7_edges.jpg,-2.507936,-1.142856,edges,moob25,2022-04-28_00h24.07.114,ratings,2022.1.1,Win32,60.0240096
0.496254682,2.022,-1.348314607,7.878,0,241,241,210,1,394_8e3a0cb945144d53bd1ace04b6256237ed9dcbbd9cb83f8a4886b0e6_orig.jpg,-2.593884,2.651956,original,moob25,2022-04-28_00h24.07.114,ratings,2022.1.1,Win32,60.0240096
0.861423221,1.944,0.411985019,4.627,0,242,242,6,1,28_6318543b74eeb646a1735477ebc023fdc9ac3849bc0db1957c272a26_orig.jpg,2.811244,-0.74584,original,moob25,2022-04-28_00h24.07.114,ratings,2022.1.1,Win32,60.0240096
-1.460674157,1.157,1.835205993,1.84,0,243,243,335,1,482_a1cd28915c5044c018195ab0fff10dcc95e385246b045a7cd4463ff7_circblurext.jpg,-3.361852,-1.555612,circularblurringext,moob25,2022-04-28_00h24.07.114,ratings,2022.1.1,Win32,60.0240096
1.647940075,1.856,1.320224719,5.038,0,244,244,67,1,172_c641c6c56ca6b594b773084e1363c852abdb65f988d7ff802ee503f2_bw.jpg,0.379572,0.01725328,blackwhite,moob25,2022-04-28_00h24.07.114,ratings,2022.1.1,Win32,60.0240096
-0.196629213,1.891,0.009363296,7.304,0,245,245,65,1,156_08e8cf8f04630e9213e610580de73f51572d1d589878648700bae4dc_circblurext.jpg,2.222224,0.0,circularblurringext,moob25,2022-04-28_00h24.07.114,ratings,2022.1.1,Win32,60.0240096
-1.610486891,1.698,1.22659176,22.222,0,246,246,250,1,414_0187bdf7007109b487865b6a9d388997a6817acf052a6a7cdd5b39d9_circblurint.jpg,-2.786708,-1.133056,circularblurringint,moob25,2022-04-28_00h24.07.114,ratings,2022.1.1,Win32,60.0240096
-0.421348315,1.519,-0.15917603,3.504,0,247,247,219,1,396_208259ea431d47bb7f3946213eb099834eb119756ce304ad473d4d9f_blur.jpg,2.857144,-0.3809524,blurring,moob25,2022-04-28_00h24.07.114,ratings,2022.1.1,Win32,60.0240096
1.189138577,4.021,1.404494382,5.611,0,248,248,90,1,258_d26019382777d2159a974a7654923e71598135ce2cd710cea1f92865_orig.jpg,3.497684,-0.61104,original,moob25,2022-04-28_00h24.07.114,ratings,2022.1.1,Win32,60.0240096
0.037453184,20.407,-0.046816479,18.607,0,249,249,96,1,267_792043debad81ce271cec5b3c3bd9d264efc13f362bec9c7a3f72fe7_orig.jpg,1.980616,0.2107036,original,moob25,2022-04-28_00h24.07.114,ratings,2022.1.1,Win32,60.0240096
-0.252808989,2.206,0.074906367,12.639,0,250,250,177,1,368_6507b94d7d0199f14efd3706db30c9c44b96085f84e9cc7792e3e0ae_blur.jpg,1.959544,0.400336,blurring,moob25,2022-04-28_00h24.07.114,ratings,2022.1.1,Win32,60.0240096
-0.168539326,7.377,-0.402621723,2.872,0,251,251,169,1,365_45a719cabbc9aa308c4fcb30d529489c6966ac4073874af84f665c61_bw.jpg,2.507936,-1.968252,blackwhite,moob25,2022-04-28_00h24.07.114,ratings,2022.1.1,Win32,60.0240096
0.084269663,3.809,-0.037453184,9.005,0,252,252,301,1,453_54f106fd1d4b65fa4aa347407127fc30d49f791e81aee3a0bbe44489_bw.jpg,2.222224,0.0,blackwhite,moob25,2022-04-28_00h24.07.114,ratings,2022.1.1,Win32,60.0240096
-0.234082397,1.354,-0.196629213,2.754,0,253,253,278,1,440_9bf7e8609729bf888835168834da6c3ff30b75d0d4f36e2ee6918bcc_edges.jpg,-2.284164,2.710028,edges,moob25,2022-04-28_00h24.07.114,ratings,2022.1.1,Win32,60.0240096
-0.79588015,24.39,1.001872659,25.407,0,254,254,295,1,449_9c1e990a3480e5b51430fe76b0188e69ba2468fd6a866b88b2d0dd75_bw.jpg,0.095238,0.03174604,blackwhite,moob25,2022-04-28_00h24.07.114,ratings,2022.1.1,Win32,60.0240096
-0.112359551,5.472,-0.102996255,3.422,0,255,255,5,1,13_771f4fcf0a212d25d6a78565e7f34cc5ddd823e7afbdc77ef063326e_circblurext.jpg,2.190476,0.0,circularblurringext,moob25,2022-04-28_00h24.07.114,ratings,2022.1.1,Win32,60.0240096
-0.196629213,1.524,-0.271535581,5.03,0,256,256,468,1,741_2b218fb015e3da83db73cacdb52e61e0c2534c1fe255bb1c5c74d47f_orig.jpg,3.140096,0.448584,original,moob25,2022-04-28_00h24.07.114,ratings,2022.1.1,Win32,60.0240096
0.664794007,1.76,0.543071161,11.605,0,257,257,449,1,709_69c01dcde028a2a1a913f1a2a5026ae1748484f75c89217a040c6791_circblurext.jpg,1.432444,-0.01935732,circularblurringext,moob25,2022-04-28_00h24.07.114,ratings,2022.1.1,Win32,60.0240096
-0.514981273,1.264,-0.074906367,2.028,0,258,258,206,1,381_5935a9f9796adce2f1539af6c75bcdc0c80d847a2ce9b77cf59b7672_edges.jpg,-1.327432,-0.442476,edges,moob25,2022-04-28_00h24.07.114,ratings,2022.1.1,Win32,60.0240096
-1.816479401,3.82,-0.168539326,5.621,0,259,259,234,1,410_9633c4ff6e8888fcfca59a60ca86e9606d3e0736500a254101bdf295_orig.jpg,-0.3677892,2.981028,original,moob25,2022-04-28_00h24.07.114,ratings,2022.1.1,Win32,60.0240096
0.243445693,8.758,-1.526217228,2.072,0,260,260,108,1,293_3dfdfafc0c6a54b2da7453750ac281f7718c0b3337b0a74c4563d6bd_orig.jpg,-2.574524,2.632596,original,moob25,2022-04-28_00h24.07.114,ratings,2022.1.1,Win32,60.0240096
0.009363296,1.99,-0.393258427,15.62,0,261,261,454,1,716_2ab64478147184c4df720a52cf621875addc9007cb2967e4a9a88909_circblurint.jpg,2.428484,0.0,circularblurringint,moob25,2022-04-28_00h24.07.114,ratings,2022.1.1,Win32,60.0240096
-0.271535581,1.287,-0.252808989,2.059,0,262,262,380,1,640_0ddb4981a5f5842ed5b4f7ef941be53779189df5e718b1fc5475ad80_edges.jpg,2.571428,-1.873016,edges,moob25,2022-04-28_00h24.07.114,ratings,2022.1.1,Win32,60.0240096
-2.041198502,1.776,0.337078652,2.708,0,263,263,244,1,411_adfd0d5782129756321ff671d0cfb712528504c66c863df11aabd1e7_circblurint.jpg,-3.392332,-1.369576,circularblurringint,moob25,2022-04-28_00h24.07.114,ratings,2022.1.1,Win32,60.0240096
0.983146067,2.223,0.533707865,3.825,0,264,264,40,1,82_43f4d5aec7c2e5bd495473f6708a0f2d47c9fe34e1fe9436646cb036_circblurint.jpg,2.022756,0.505688,circularblurringint,moob25,2022-04-28_00h24.07.114,ratings,2022.1.1,Win32,60.0240096
-0.421348315,1.123,-0.140449438,1.842,0,265,265,62,1,156_08e8cf8f04630e9213e610580de73f51572d1d589878648700bae4dc_edges.jpg,2.222224,0.0,edges,moob25,2022-04-28_00h24.07.114,ratings,2022.1.1,Win32,60.0240096
-1.151685393,22.122,-0.018726592,22.862,0,266,266,373,1,620_9674719009d75dcfeaed7f15932c43e1fd1af5e25d47b8aadd61efe2_bw.jpg,-0.561364,1.142084,blackwhite,moob25,2022-04-28_00h24.07.114,ratings,2022.1.1,Win32,60.0240096
1.507490637,1.763,1.245318352,2.62,0,267,267,595,1,1239_cee00457f4cfb76a407b12fd5ad714d440a4614c1e5467ee16caf618_bw.jpg,-0.03174604,0.190476,blackwhite,moob25,2022-04-28_00h24.07.114,ratings,2022.1.1,Win32,60.0240096
-0.411985019,1.166,-0.074906367,1.556,0,268,268,506,1,855_66d893451dfd1e7615132071c6c8a82b02dc2b37781cd89400883b26_edges.jpg,2.69484,0.2143624,edges,moob25,2022-04-28_00h24.07.114,ratings,2022.1.1,Win32,60.0240096
-0.112359551,1.356,-0.074906367,2.122,0,269,269,33,1,60_ad52063167538de24f94d7dfd04808cb94cf8f426c40871d2f126505_blur.jpg,2.158732,0.0,blurring,moob25,2022-04-28_00h24.07.114,ratings,2022.1.1,Win32,60.0240096
-0.028089888,1.572,-0.074906367,2.261,0,270,270,119,1,332_4d584229bdae2e1782f77f0e953e528f13c3dfa79b4b94736c0310fa_circblurext.jpg,3.157348,0.483092,circularblurringext,moob25,2022-04-28_00h24.07.114,ratings,2022.1.1,Win32,60.0240096
-0.131086142,3.407,-0.205992509,4.144,0,271,271,11,1,28_6318543b74eeb646a1735477ebc023fdc9ac3849bc0db1957c272a26_circblurext.jpg,2.811244,-0.74584,circularblurringext,moob25,2022-04-28_00h24.07.114,ratings,2022.1.1,Win32,60.0240096
-0.393258427,7.992,-0.337078652,8.656,0,272,272,165,1,361_b5541309527dc3c2422f45a95ebb0ed32005e6fe10d0489a1ff1fbdc_blur.jpg,-3.987612,-0.2516452,blurring,moob25,2022-04-28_00h24.07.114,ratings,2022.1.1,Win32,60.0240096
-1.189138577,1.472,0.63670412,2.189,0,273,273,557,1,1014_a5c212ca979d482cf94c2db7697aba75620391a64b030ab7ad2bbecf_circblurext.jpg,-3.174604,-1.374372,circularblurringext,moob25,2022-04-28_00h24.07.114,ratings,2022.1.1,Win32,60.0240096
-0.730337079,3.224,0.093632959,7.544,0,274,274,556,1,1014_a5c212ca979d482cf94c2db7697aba75620391a64b030ab7ad2bbecf_circblurint.jpg,-3.174604,-1.374372,circularblurringint,moob25,2022-04-28_00h24.07.114,ratings,2022.1.1,Win32,60.0240096
-0.112359551,1.49,-0.308988764,2.44,0,275,275,32,1,60_ad52063167538de24f94d7dfd04808cb94cf8f426c40871d2f126505_edges.jpg,2.158732,0.0,edges,moob25,2022-04-28_00h24.07.114,ratings,2022.1.1,Win32,60.0240096
-0.861423221,1.282,0.711610487,3.304,0,276,276,417,1,692_7d7eaf20e6de8956f0fca7500ace97a8599aa8b605a7d690cdb28724_blur.jpg,-2.063492,-1.26984,blurring,moob25,2022-04-28_00h24.07.114,ratings,2022.1.1,Win32,60.0240096
-0.365168539,1.239,-0.121722846,1.642,0,277,277,440,1,700_59cb565f134f1afd066d7b6d936c6511b7cb76de0e9cbb5ce15124ad_edges.jpg,0.0,0.0,edges,moob25,2022-04-28_00h24.07.114,ratings,2022.1.1,Win32,60.0240096
-0.440074906,1.455,-0.692883895,1.826,0,278,278,50,1,112_b6a4ce721c2e42943d7d8b168751d74cd2f372b1cd4fed5a4404faec_edges.jpg,2.107036,0.505688,edges,moob25,2022-04-28_00h24.07.114,ratings,2022.1.1,Win32,60.0240096
1.329588015,10.054,1.198501873,11.013,0,279,279,457,1,720_483c541c48959a597fcf44320941afaf8b7695105f90d65b5f6b30f2_bw.jpg,2.158732,-0.2539684,blackwhite,moob25,2022-04-28_00h24.07.114,ratings,2022.1.1,Win32,60.0240096
-0.543071161,1.595,-0.018726592,3.59,0,280,280,540,1,1005_b980c0747d20935bc63cc27a9e05ce2ff5bae98f859872ec48edd7f5_orig.jpg,3.428572,-0.476192,original,moob25,2022-04-28_00h24.07.114,ratings,2022.1.1,Win32,60.0240096
-0.674157303,2.281,0.9082397,3.993,0,281,281,46,1,92_5d20d78a8e57e628c6930676473a4e0a485e715841efd6286c660020_circblurint.jpg,2.126984,0.0,circularblurringint,moob25,2022-04-28_00h24.07.114,ratings,2022.1.1,Win32,60.0240096
-0.224719101,4.526,-0.31835206,7.372,0,282,282,501,1,854_081a8409e4d6d10923b2dedcc16a3fca405fcd602e55a20d84cac69d_blur.jpg,3.088264,1.21538,blurring,moob25,2022-04-28_00h24.07.114,ratings,2022.1.1,Win32,60.0240096
0.018726592,11.104,-0.168539326,12.172,0,283,283,123,1,347_27f0e47c2722605b950ccf9fa900f78271e4c3c874064ab5dacac160_blur.jpg,1.838948,0.3097172,blurring,moob25,2022-04-28_00h24.07.114,ratings,2022.1.1,Win32,60.0240096
0.187265918,1.623,-0.046816479,2.11,0,284,284,183,1,369_98db62a1bdabfd1bc551180da6658005b461585cd21614633cf76470_blur.jpg,2.190476,-0.03174604,blurring,moob25,2022-04-28_00h24.07.114,ratings,2022.1.1,Win32,60.0240096
0.702247191,2.595,0.102996255,3.455,0,285,285,95,1,258_d26019382777d2159a974a7654923e71598135ce2cd710cea1f92865_circblurext.jpg,3.497684,-0.61104,circularblurringext,moob25,2022-04-28_00h24.07.114,ratings,2022.1.1,Win32,60.0240096
0.674157303,71.412,-0.131086142,69.454,0,286,286,427,1,694_7a14b8ab7c564dcb0f628c4de7f6cb54e4c5f6601f774bf167641c37_bw.jpg,1.819588,0.116144,blackwhite,moob25,2022-04-28_00h24.07.114,ratings,2022.1.1,Win32,60.0240096
-0.365168539,1.405,-0.177902622,3.573,0,287,287,275,1,434_ba36d91204d7e578001f6a545d7501e65d209554def5a3c8b7583825_circblurext.jpg,-3.523808,1.428572,circularblurringext,moob25,2022-04-28_00h24.07.114,ratings,2022.1.1,Win32,60.0240096
-0.393258427,1.44,0.196629213,5.254,0,288,288,513,1,858_2f6539ee36aba48c38dc716d4f7c3ae93367d6ddf23ab41745d4172c_blur.jpg,0.0623832,0.176752,blurring,moob25,2022-04-28_00h24.07.114,ratings,2022.1.1,Win32,60.0240096
-0.234082397,1.226,-0.140449438,1.738,0,289,289,426,1,694_7a14b8ab7c564dcb0f628c4de7f6cb54e4c5f6601f774bf167641c37_orig.jpg,1.819588,0.116144,original,moob25,2022-04-28_00h24.07.114,ratings,2022.1.1,Win32,60.0240096
1.179775281,3.225,0.355805243,3.887,0,290,290,24,1,59_8568373b727f29d67ba6ce4c360dd918c8b08b13495fca56bdda5e82_orig.jpg,2.064896,0.505688,original,moob25,2022-04-28_00h24.07.114,ratings,2022.1.1,Win32,60.0240096
-0.149812734,1.13,-0.280898876,1.806,0,291,291,411,1,687_e3b018945792a574962235c88c553b7c318c75eec2596478e8a7b877_blur.jpg,3.63918,-0.42586,blurring,moob25,2022-04-28_00h24.07.114,ratings,2022.1.1,Win32,60.0240096
-0.702247191,1.277,-0.205992509,4.394,0,292,292,284,1,440_dc6413e2b65369ee2587f4d85621742fe4ca87392d0a8ad2ea7d94e3_edges.jpg,-3.016216,1.69404,edges,moob25,2022-04-28_00h24.07.114,ratings,2022.1.1,Win32,60.0240096
0.187265918,19.359,0.065543071,24.904,0,293,293,599,1,1239_cee00457f4cfb76a407b12fd5ad714d440a4614c1e5467ee16caf618_circblurext.jpg,-0.03174604,0.190476,circularblurringext,moob25,2022-04-28_00h24.07.114,ratings,2022.1.1,Win32,60.0240096
-0.168539326,1.289,-0.299625468,2.025,0,294,294,441,1,700_59cb565f134f1afd066d7b6d936c6511b7cb76de0e9cbb5ce15124ad_blur.jpg,0.0,0.0,blurring,moob25,2022-04-28_00h24.07.114,ratings,2022.1.1,Win32,60.0240096
-0.43071161,1.143,-0.215355805,1.877,0,295,295,59,1,137_0e6a04243c0a42a5e2528a2d181255ca2a4b7bd6e7978c5c2059c69f_circblurext.jpg,-0.95238,2.095236,circularblurringext,moob25,2022-04-28_00h24.07.114,ratings,2022.1.1,Win32,60.0240096
0.308988764,2.213,0.739700375,6.405,0,296,296,399,1,683_a004ad18331da968da5debdd15e1447dd7748750af0bc6c57b844200_blur.jpg,-2.91956,2.466524,blurring,moob25,2022-04-28_00h24.07.114,ratings,2022.1.1,Win32,60.0240096
0.898876404,6.345,0.823970037,3.241,0,297,297,114,1,332_4d584229bdae2e1782f77f0e953e528f13c3dfa79b4b94736c0310fa_orig.jpg,3.157348,0.483092,original,moob25,2022-04-28_00h24.07.114,ratings,2022.1.1,Win32,60.0240096
-1.498127341,1.522,1.647940075,5.388,0,298,298,166,1,361_b5541309527dc3c2422f45a95ebb0ed32005e6fe10d0489a1ff1fbdc_circblurint.jpg,-3.987612,-0.2516452,circularblurringint,moob25,2022-04-28_00h24.07.114,ratings,2022.1.1,Win32,60.0240096
-1.104868914,2.577,0.852059925,3.373,0,299,299,354,1,500_3b520c7f352afa1a9f8c07e56cc0588cdc04d25ff6e7b602b5e280cb_orig.jpg,-0.8328,3.11766,original,moob25,2022-04-28_00h24.07.114,ratings,2022.1.1,Win32,60.0240096
-1.235955056,1.483,1.329588015,2.678,0,300,300,403,1,686_6745b57686ad5d1bd6cf3e7ed5bc0243a154f8939e88e30321dfcfdb_bw.jpg,-1.523808,3.650792,blackwhite,moob25,2022-04-28_00h24.07.114,ratings,2022.1.1,Win32,60.0240096
0.234082397,9.174,-1.338951311,11.606,0,301,301,504,1,855_66d893451dfd1e7615132071c6c8a82b02dc2b37781cd89400883b26_orig.jpg,2.69484,0.2143624,original,moob25,2022-04-28_00h24.07.114,ratings,2022.1.1,Win32,60.0240096
-1.329588015,21.212,0.440074906,17.89,0,302,302,370,1,616_05a637f5281666f53d4e2ef69351485fc21d629b37ee2006b2076eb6_circblurint.jpg,-2.380952,-0.832364,circularblurringint,moob25,2022-04-28_00h24.07.114,ratings,2022.1.1,Win32,60.0240096
-0.449438202,3.905,1.348314607,5.581,0,303,303,514,1,858_2f6539ee36aba48c38dc716d4f7c3ae93367d6ddf23ab41745d4172c_circblurint.jpg,0.0623832,0.176752,circularblurringint,moob25,2022-04-28_00h24.07.114,ratings,2022.1.1,Win32,60.0240096
-0.805243446,5.125,1.38576779,2.373,0,304,304,358,1,500_3b520c7f352afa1a9f8c07e56cc0588cdc04d25ff6e7b602b5e280cb_circblurint.jpg,-0.8328,3.11766,circularblurringint,moob25,2022-04-28_00h24.07.114,ratings,2022.1.1,Win32,60.0240096
0.63670412,5.422,-1.254681648,3.014,0,305,305,505,1,855_66d893451dfd1e7615132071c6c8a82b02dc2b37781cd89400883b26_bw.jpg,2.69484,0.2143624,blackwhite,moob25,2022-04-28_00h24.07.114,ratings,2022.1.1,Win32,60.0240096
0.683520599,1.56,1.282771536,2.739,0,306,306,48,1,112_b6a4ce721c2e42943d7d8b168751d74cd2f372b1cd4fed5a4404faec_orig.jpg,2.107036,0.505688,original,moob25,2022-04-28_00h24.07.114,ratings,2022.1.1,Win32,60.0240096
0.758426966,1.693,1.43258427,4.088,0,307,307,232,1,407_578d31d32e806706dde2563213f130b90e621abfed0e47ecabd85d27_circblurint.jpg,3.5873,-0.444444,circularblurringint,moob25,2022-04-28_00h24.07.114,ratings,2022.1.1,Win32,60.0240096
0.47752809,2.005,0.74906367,2.507,0,308,308,79,1,242_85283f6935a89812ab229dcad9ba184529c9242ac3106d768ecf3ab3_bw.jpg,2.14918,-0.2949852,blackwhite,moob25,2022-04-28_00h24.07.114,ratings,2022.1.1,Win32,60.0240096
-0.374531835,1.371,-0.411985019,2.022,0,309,309,527,1,877_cab3efed0c9ff4552037df6c1ea4ea9713f915c94592a14dbf2799da_circblurext.jpg,3.174604,0.3174604,circularblurringext,moob25,2022-04-28_00h24.07.114,ratings,2022.1.1,Win32,60.0240096
-0.337078652,1.292,-0.215355805,2.438,0,310,310,566,1,1037_e2eb929a6de79a63ce6cfe5321fcb74a203b134e4094932d90b01d99_edges.jpg,2.651956,0.0,edges,moob25,2022-04-28_00h24.07.114,ratings,2022.1.1,Win32,60.0240096
-0.224719101,325.372,-0.290262172,322.437,0,311,311,201,1,380_34772591c787182a37724027eac6948ebc9d4064f6a601d23b923b8e_blur.jpg,2.222224,-0.063492,blurring,moob25,2022-04-28_00h24.07.114,ratings,2022.1.1,Win32,60.0240096
0.149812734,235.318,-0.486891386,707.275,0,312,312,125,1,347_27f0e47c2722605b950ccf9fa900f78271e4c3c874064ab5dacac160_circblurext.jpg,1.838948,0.3097172,circularblurringext,moob25,2022-04-28_00h24.07.114,ratings,2022.1.1,Win32,60.0240096
-0.833333333,1.424,1.217228464,2.532,0,313,313,528,1,915_dc9fd40a3b5d64a180833a7bac86e7556c24f681f473fe255e41f936_orig.jpg,-3.09294,-0.918696,original,moob25,2022-04-28_00h24.07.114,ratings,2022.1.1,Win32,60.0240096
-0.74906367,7.821,-0.262172285,8.531,0,314,314,522,1,877_cab3efed0c9ff4552037df6c1ea4ea9713f915c94592a14dbf2799da_orig.jpg,3.174604,0.3174604,original,moob25,2022-04-28_00h24.07.114,ratings,2022.1.1,Win32,60.0240096
-0.299625468,1.338,-0.355805243,1.972,0,315,315,87,1,243_beddb302dcb21071d88c8d2cab07002050d36b3001ef28f89389fa56_blur.jpg,-0.3450656,-0.2070392,blurring,moob25,2022-04-28_00h24.07.114,ratings,2022.1.1,Win32,60.0240096
-0.215355805,2.96,-0.449438202,6.18,0,316,316,509,1,855_66d893451dfd1e7615132071c6c8a82b02dc2b37781cd89400883b26_circblurext.jpg,2.69484,0.2143624,circularblurringext,moob25,2022-04-28_00h24.07.114,ratings,2022.1.1,Win32,60.0240096
-0.168539326,2.138,-0.196629213,5.037,0,317,317,276,1,440_9bf7e8609729bf888835168834da6c3ff30b75d0d4f36e2ee6918bcc_orig.jpg,-2.284164,2.710028,original,moob25,2022-04-28_00h24.07.114,ratings,2022.1.1,Win32,60.0240096
0.47752809,1.657,1.413857678,2.391,0,318,318,78,1,242_85283f6935a89812ab229dcad9ba184529c9242ac3106d768ecf3ab3_orig.jpg,2.14918,-0.2949852,original,moob25,2022-04-28_00h24.07.114,ratings,2022.1.1,Win32,60.0240096
-0.308988764,1.129,-0.149812734,2.013,0,319,319,2,1,13_771f4fcf0a212d25d6a78565e7f34cc5ddd823e7afbdc77ef063326e_edges.jpg,2.190476,0.0,edges,moob25,2022-04-28_00h24.07.114,ratings,2022.1.1,Win32,60.0240096
-0.702247191,1.372,-0.252808989,2.105,0,320,320,321,1,460_e06b3af7ff2f2bfb5f9b6e3d5dc25b9aaa40b84823fac8fd934621bd_blur.jpg,-3.430992,-1.607468,blurring,moob25,2022-04-28_00h24.07.114,ratings,2022.1.1,Win32,60.0240096
-0.346441948,1.822,-0.458801498,2.725,0,321,321,237,1,410_9633c4ff6e8888fcfca59a60ca86e9606d3e0736500a254101bdf295_blur.jpg,-0.3677892,2.981028,blurring,moob25,2022-04-28_00h24.07.114,ratings,2022.1.1,Win32,60.0240096
-0.421348315,3.587,-0.056179775,6.605,0,322,322,316,1,459_46e25de472bb056cb470716d30937415f7344bfc4354d6eb710d8c9f_circblurint.jpg,0.03174604,0.0,circularblurringint,moob25,2022-04-28_00h24.07.114,ratings,2022.1.1,Win32,60.0240096
-0.561797753,3.54,-0.421348315,4.328,0,323,323,302,1,453_54f106fd1d4b65fa4aa347407127fc30d49f791e81aee3a0bbe44489_edges.jpg,2.222224,0.0,edges,moob25,2022-04-28_00h24.07.114,ratings,2022.1.1,Win32,60.0240096
0.842696629,5.372,1.769662921,2.409,0,324,324,175,1,368_6507b94d7d0199f14efd3706db30c9c44b96085f84e9cc7792e3e0ae_bw.jpg,1.959544,0.400336,blackwhite,moob25,2022-04-28_00h24.07.114,ratings,2022.1.1,Win32,60.0240096
1.029962547,1.906,1.423220974,2.539,0,325,325,594,1,1239_cee00457f4cfb76a407b12fd5ad714d440a4614c1e5467ee16caf618_orig.jpg,-0.03174604,0.190476,original,moob25,2022-04-28_00h24.07.114,ratings,2022.1.1,Win32,60.0240096
-1.11423221,1.423,0.646067416,1.871,0,326,326,333,1,482_a1cd28915c5044c018195ab0fff10dcc95e385246b045a7cd4463ff7_blur.jpg,-3.361852,-1.555612,blurring,moob25,2022-04-28_00h24.07.114,ratings,2022.1.1,Win32,60.0240096
-0.524344569,1.296,-0.308988764,2.404,0,327,327,272,1,434_ba36d91204d7e578001f6a545d7501e65d209554def5a3c8b7583825_edges.jpg,-3.523808,1.428572,edges,moob25,2022-04-28_00h24.07.114,ratings,2022.1.1,Win32,60.0240096
-0.308988764,1.411,-0.140449438,1.807,0,328,328,461,1,720_483c541c48959a597fcf44320941afaf8b7695105f90d65b5f6b30f2_circblurext.jpg,2.158732,-0.2539684,circularblurringext,moob25,2022-04-28_00h24.07.114,ratings,2022.1.1,Win32,60.0240096
-0.674157303,4.739,0.121722846,5.221,0,329,329,137,1,349_8809a67686d34844c915d7700e2ea72ad1c02ae232ae0d3cc0e458d4_circblurext.jpg,-3.619048,-0.2857144,circularblurringext,moob25,2022-04-28_00h24.07.114,ratings,2022.1.1,Win32,60.0240096
-0.31835206,2.089,-0.468164794,3.272,0,330,330,220,1,396_208259ea431d47bb7f3946213eb099834eb119756ce304ad473d4d9f_circblurint.jpg,2.857144,-0.3809524,circularblurringint,moob25,2022-04-28_00h24.07.114,ratings,2022.1.1,Win32,60.0240096
-0.505617978,1.161,-0.346441948,1.941,0,331,331,266,1,431_ab5a1dbbe9292ac7f74e276cdabcd372e2c1f852ff34bf7cc6646ef8_edges.jpg,3.102584,0.354334,edges,moob25,2022-04-28_00h24.07.114,ratings,2022.1.1,Win32,60.0240096
-0.205992509,20.257,0.018726592,21.843,0,332,332,150,1,355_00a76f54934d36566dd0e7b091b8aa6a56d8e6b32d349aa578a10b45_orig.jpg,2.910052,0.3439152,original,moob25,2022-04-28_00h24.07.114,ratings,2022.1.1,Win32,60.0240096
-0.852059925,1.571,1.001872659,2.49,0,333,333,162,1,361_b5541309527dc3c2422f45a95ebb0ed32005e6fe10d0489a1ff1fbdc_orig.jpg,-3.987612,-0.2516452,original,moob25,2022-04-28_00h24.07.114,ratings,2022.1.1,Win32,60.0240096
-1.610486891,8.243,0.074906367,4.779,0,334,334,258,1,416_8a1f874e0057d67a4e6955865ba88b2d8ce2c8b4469589307687a723_orig.jpg,-1.753336,3.088264,original,moob25,2022-04-28_00h24.07.114,ratings,2022.1.1,Win32,60.0240096
-0.646067416,2.263,1.451310861,3.421,0,335,335,422,1,692_e3e3bf88684fbbcdb9849a4147f9e2fcd39b0f083554a829aca4e9fa_edges.jpg,-0.44522,3.135888,edges,moob25,2022-04-28_00h24.07.114,ratings,2022.1.1,Win32,60.0240096
0.458801498,2.387,1.104868914,3.529,0,336,336,460,1,720_483c541c48959a597fcf44320941afaf8b7695105f90d65b5f6b30f2_circblurint.jpg,2.158732,-0.2539684,circularblurringint,moob25,2022-04-28_00h24.07.114,ratings,2022.1.1,Win32,60.0240096
-0.664794007,1.497,-0.168539326,1.955,0,337,337,369,1,616_05a637f5281666f53d4e2ef69351485fc21d629b37ee2006b2076eb6_blur.jpg,-2.380952,-0.832364,blurring,moob25,2022-04-28_00h24.07.114,ratings,2022.1.1,Win32,60.0240096
-0.702247191,2.305,-0.140449438,3.147,0,338,338,196,1,379_eeaa6d9bf5a4ef205dc48bc505cf3a7f24ea86e99af9b371e03602a7_circblurint.jpg,-0.3926308,2.88936,circularblurringint,moob25,2022-04-28_00h24.07.114,ratings,2022.1.1,Win32,60.0240096
-0.702247191,1.738,1.292134831,3.313,0,339,339,294,1,449_9c1e990a3480e5b51430fe76b0188e69ba2468fd6a866b88b2d0dd75_orig.jpg,0.095238,0.03174604,original,moob25,2022-04-28_00h24.07.114,ratings,2022.1.1,Win32,60.0240096
0.121722846,9.888,0.543071161,7.971,0,340,340,41,1,82_43f4d5aec7c2e5bd495473f6708a0f2d47c9fe34e1fe9436646cb036_circblurext.jpg,2.022756,0.505688,circularblurringext,moob25,2022-04-28_00h24.07.114,ratings,2022.1.1,Win32,60.0240096
-0.571161049,7.655,0.018726592,4.679,0,341,341,208,1,381_5935a9f9796adce2f1539af6c75bcdc0c80d847a2ce9b77cf59b7672_circblurint.jpg,-1.327432,-0.442476,circularblurringint,moob25,2022-04-28_00h24.07.114,ratings,2022.1.1,Win32,60.0240096
-2.34082397,4.56,0.393258427,14.78,0,342,342,318,1,460_e06b3af7ff2f2bfb5f9b6e3d5dc25b9aaa40b84823fac8fd934621bd_orig.jpg,-3.430992,-1.607468,original,moob25,2022-04-28_00h24.07.114,ratings,2022.1.1,Win32,60.0240096
-0.786516854,1.581,0.084269663,2.125,0,343,343,345,1,494_5c6c3b85a2734a43c24bfe337d42ffcc82b7347227804d01c784cef4_blur.jpg,0.03871468,0.0,blurring,moob25,2022-04-28_00h24.07.114,ratings,2022.1.1,Win32,60.0240096
-0.449438202,2.291,-0.47752809,3.355,0,344,344,63,1,156_08e8cf8f04630e9213e610580de73f51572d1d589878648700bae4dc_blur.jpg,2.222224,0.0,blurring,moob25,2022-04-28_00h24.07.114,ratings,2022.1.1,Win32,60.0240096
-1.198501873,1.328,1.170411985,2.095,0,345,345,496,1,824_b1d91cc824ce0d3d383d3147da88d3d6dbaf6be918bab79e3ec8f501_circblurint.jpg,-3.645176,-1.432784,circularblurringint,moob25,2022-04-28_00h24.07.114,ratings,2022.1.1,Win32,60.0240096
-0.514981273,2.243,0.271535581,3.242,0,346,346,366,1,616_05a637f5281666f53d4e2ef69351485fc21d629b37ee2006b2076eb6_orig.jpg,-2.380952,-0.832364,original,moob25,2022-04-28_00h24.07.114,ratings,2022.1.1,Win32,60.0240096
-0.599250936,1.49,-0.299625468,2.974,0,347,347,140,1,353_44e285740cb41818482ac93fc5fbd72c18029444a1d7506c9fc053e7_edges.jpg,-3.232676,-0.87108,edges,moob25,2022-04-28_00h24.07.114,ratings,2022.1.1,Win32,60.0240096
-0.046816479,7.227,-0.720973783,10.024,0,348,348,211,1,394_8e3a0cb945144d53bd1ace04b6256237ed9dcbbd9cb83f8a4886b0e6_bw.jpg,-2.593884,2.651956,blackwhite,moob25,2022-04-28_00h24.07.114,ratings,2022.1.1,Win32,60.0240096
0.777153558,1.327,0.205992509,1.714,0,349,349,191,1,369_c99797771115d7627d4abe3415f814497288f91a7be1a04c17c776b9_circblurext.jpg,3.619824,-0.174216,circularblurringext,moob25,2022-04-28_00h24.07.114,ratings,2022.1.1,Win32,60.0240096
-0.337078652,3.244,0.15917603,1.81,0,350,350,596,1,1239_cee00457f4cfb76a407b12fd5ad714d440a4614c1e5467ee16caf618_edges.jpg,-0.03174604,0.190476,edges,moob25,2022-04-28_00h24.07.114,ratings,2022.1.1,Win32,60.0240096
-0.43071161,1.953,-0.458801498,3.164,0,351,351,239,1,410_9633c4ff6e8888fcfca59a60ca86e9606d3e0736500a254101bdf295_circblurext.jpg,-0.3677892,2.981028,circularblurringext,moob25,2022-04-28_00h24.07.114,ratings,2022.1.1,Win32,60.0240096
-0.421348315,9.189,0,1155.091,0,352,352,559,1,1022_cf035e583d41a856836f8b0ae314ecbe79dffd9e40ef6a08cc26028f_bw.jpg,-0.2516452,3.05846,blackwhite,moob25,2022-04-28_00h24.07.114,ratings,2022.1.1,Win32,60.0240096
-0.308988764,1.538,-0.468164794,2.228,0,353,353,233,1,407_578d31d32e806706dde2563213f130b90e621abfed0e47ecabd85d27_circblurext.jpg,3.5873,-0.444444,circularblurringext,moob25,2022-04-28_00h24.07.114,ratings,2022.1.1,Win32,60.0240096
-0.271535581,1.079,-0.065543071,1.875,0,354,354,182,1,369_98db62a1bdabfd1bc551180da6658005b461585cd21614633cf76470_edges.jpg,2.190476,-0.03174604,edges,moob25,2022-04-28_00h24.07.114,ratings,2022.1.1,Win32,60.0240096
-0.561797753,1.464,-0.290262172,2.056,0,355,355,279,1,440_9bf7e8609729bf888835168834da6c3ff30b75d0d4f36e2ee6918bcc_blur.jpg,-2.284164,2.710028,blurring,moob25,2022-04-28_00h24.07.114,ratings,2022.1.1,Win32,60.0240096
0.308988764,1.789,-1.095505618,2.496,0,356,356,546,1,1010_06d15f44b979c086561137000ec070ba4cd479856f92840a7850b2bf_orig.jpg,0.189786,-0.189786,original,moob25,2022-04-28_00h24.07.114,ratings,2022.1.1,Win32,60.0240096
0.486891386,6.749,-1.423220974,3.805,0,357,357,120,1,347_27f0e47c2722605b950ccf9fa900f78271e4c3c874064ab5dacac160_orig.jpg,1.838948,0.3097172,original,moob25,2022-04-28_00h24.07.114,ratings,2022.1.1,Win32,60.0240096
-0.533707865,7.516,-0.486891386,8.606,0,358,358,267,1,431_ab5a1dbbe9292ac7f74e276cdabcd372e2c1f852ff34bf7cc6646ef8_blur.jpg,3.102584,0.354334,blurring,moob25,2022-04-28_00h24.07.114,ratings,2022.1.1,Win32,60.0240096
-0.440074906,1.803,-0.056179775,2.59,0,359,359,320,1,460_e06b3af7ff2f2bfb5f9b6e3d5dc25b9aaa40b84823fac8fd934621bd_edges.jpg,-3.430992,-1.607468,edges,moob25,2022-04-28_00h24.07.114,ratings,2022.1.1,Win32,60.0240096
0.084269663,3.205,-0.468164794,4.179,0,360,360,472,1,741_2b218fb015e3da83db73cacdb52e61e0c2534c1fe255bb1c5c74d47f_circblurint.jpg,3.140096,0.448584,circularblurringint,moob25,2022-04-28_00h24.07.114,ratings,2022.1.1,Win32,60.0240096
0.655430712,1.639,-0.805243446,5.209,0,361,361,382,1,640_0ddb4981a5f5842ed5b4f7ef941be53779189df5e718b1fc5475ad80_circblurint.jpg,2.571428,-1.873016,circularblurringint,moob25,2022-04-28_00h24.07.114,ratings,2022.1.1,Win32,60.0240096
-0.290262172,2.906,-0.383895131,4.305,0,362,362,305,1,453_54f106fd1d4b65fa4aa347407127fc30d49f791e81aee3a0bbe44489_circblurext.jpg,2.222224,0.0,circularblurringext,moob25,2022-04-28_00h24.07.114,ratings,2022.1.1,Win32,60.0240096
0.243445693,1.528,0.131086142,3.539,0,363,363,77,1,236_f645730e1eb06155418c9a571329cc7fa320654fcaaedf1048b5cc11_circblurext.jpg,2.253968,0.0,circularblurringext,moob25,2022-04-28_00h24.07.114,ratings,2022.1.1,Win32,60.0240096
-0.355805243,48.706,0.346441948,47.864,0,364,364,346,1,494_5c6c3b85a2734a43c24bfe337d42ffcc82b7347227804d01c784cef4_circblurint.jpg,0.03871468,0.0,circularblurringint,moob25,2022-04-28_00h24.07.114,ratings,2022.1.1,Win32,60.0240096
0.065543071,3.348,-0.243445693,4.046,0,365,365,293,1,442_7449d79dae5d652af9b2429872cabdef938646ba024db2f431b3b28d_circblurext.jpg,1.619048,0.126984,circularblurringext,moob25,2022-04-28_00h24.07.114,ratings,2022.1.1,Win32,60.0240096
-0.440074906,7.707,0.58988764,8.788,0,366,366,390,1,663_aaf52107fe3a86392530d88b34e86f9d2b6820714cad98d1e3c2cb67_orig.jpg,2.58766,0.0918696,original,moob25,2022-04-28_00h24.07.114,ratings,2022.1.1,Win32,60.0240096
-1.245318352,1.682,0.234082397,2.339,0,367,367,497,1,824_b1d91cc824ce0d3d383d3147da88d3d6dbaf6be918bab79e3ec8f501_circblurext.jpg,-3.645176,-1.432784,circularblurringext,moob25,2022-04-28_00h24.07.114,ratings,2022.1.1,Win32,60.0240096
-0.524344569,2.29,-0.458801498,2.924,0,368,368,300,1,453_54f106fd1d4b65fa4aa347407127fc30d49f791e81aee3a0bbe44489_orig.jpg,2.222224,0.0,original,moob25,2022-04-28_00h24.07.114,ratings,2022.1.1,Win32,60.0240096
1.292134831,3.372,0.374531835,4.028,0,369,369,66,1,172_c641c6c56ca6b594b773084e1363c852abdb65f988d7ff802ee503f2_orig.jpg,0.379572,0.01725328,original,moob25,2022-04-28_00h24.07.114,ratings,2022.1.1,Win32,60.0240096
0.842696629,1.448,0.149812734,2.11,0,370,370,189,1,369_c99797771115d7627d4abe3415f814497288f91a7be1a04c17c776b9_blur.jpg,3.619824,-0.174216,blurring,moob25,2022-04-28_00h24.07.114,ratings,2022.1.1,Win32,60.0240096
-0.692883895,1.605,0.95505618,2.722,0,371,371,12,1,39_2fafccaa4dc69045a05845f59c6b3cd2edcf7e0e0c108b24e553afe0_orig.jpg,2.022756,0.463548,original,moob25,2022-04-28_00h24.07.114,ratings,2022.1.1,Win32,60.0240096
-0.205992509,2.537,-0.308988764,3.392,0,372,372,141,1,353_44e285740cb41818482ac93fc5fbd72c18029444a1d7506c9fc053e7_blur.jpg,-3.232676,-0.87108,blurring,moob25,2022-04-28_00h24.07.114,ratings,2022.1.1,Win32,60.0240096
-0.393258427,1.239,-0.196629213,1.757,0,373,373,542,1,1005_b980c0747d20935bc63cc27a9e05ce2ff5bae98f859872ec48edd7f5_edges.jpg,3.428572,-0.476192,edges,moob25,2022-04-28_00h24.07.114,ratings,2022.1.1,Win32,60.0240096
-0.702247191,2.188,0.514981273,2.915,0,374,374,286,1,440_dc6413e2b65369ee2587f4d85621742fe4ca87392d0a8ad2ea7d94e3_circblurint.jpg,-3.016216,1.69404,circularblurringint,moob25,2022-04-28_00h24.07.114,ratings,2022.1.1,Win32,60.0240096
1.676029963,2.073,1.666666667,19.661,0,375,375,174,1,368_6507b94d7d0199f14efd3706db30c9c44b96085f84e9cc7792e3e0ae_orig.jpg,1.959544,0.400336,original,moob25,2022-04-28_00h24.07.114,ratings,2022.1.1,Win32,60.0240096
-0.711610487,87.338,0.187265918,88.62,0,376,376,502,1,854_081a8409e4d6d10923b2dedcc16a3fca405fcd602e55a20d84cac69d_circblurint.jpg,3.088264,1.21538,circularblurringint,moob25,2022-04-28_00h24.07.114,ratings,2022.1.1,Win32,60.0240096
-0.43071161,1.889,-0.383895131,2.438,0,377,377,214,1,394_8e3a0cb945144d53bd1ace04b6256237ed9dcbbd9cb83f8a4886b0e6_circblurint.jpg,-2.593884,2.651956,circularblurringint,moob25,2022-04-28_00h24.07.114,ratings,2022.1.1,Win32,60.0240096
-1.404494382,1.459,0.468164794,2.29,0,378,378,405,1,686_6745b57686ad5d1bd6cf3e7ed5bc0243a154f8939e88e30321dfcfdb_blur.jpg,-1.523808,3.650792,blurring,moob25,2022-04-28_00h24.07.114,ratings,2022.1.1,Win32,60.0240096
-0.355805243,1.29,-0.205992509,1.778,0,379,379,560,1,1022_cf035e583d41a856836f8b0ae314ecbe79dffd9e40ef6a08cc26028f_edges.jpg,-0.2516452,3.05846,edges,moob25,2022-04-28_00h24.07.114,ratings,2022.1.1,Win32,60.0240096
-0.374531835,1.387,-0.411985019,2.691,0,380,380,464,1,736_bb85db1bcda8eb34299aa5791ac65a0a7c343266eb2d6e6e328ec0e1_edges.jpg,3.650792,-0.03174604,edges,moob25,2022-04-28_00h24.07.114,ratings,2022.1.1,Win32,60.0240096
-0.252808989,1.573,-0.131086142,2.222,0,381,381,519,1,860_05c4e22518a30d3d2add458a8fc6488f87b9b02dd8e385ded939f025_blur.jpg,1.955092,0.3097172,blurring,moob25,2022-04-28_00h24.07.114,ratings,2022.1.1,Win32,60.0240096
-0.458801498,11.055,-0.346441948,9.463,0,382,382,155,1,355_00a76f54934d36566dd0e7b091b8aa6a56d8e6b32d349aa578a10b45_circblurext.jpg,2.910052,0.3439152,circularblurringext,moob25,2022-04-28_00h24.07.114,ratings,2022.1.1,Win32,60.0240096
-0.102996255,5.248,-0.9082397,6.139,0,383,383,217,1,396_208259ea431d47bb7f3946213eb099834eb119756ce304ad473d4d9f_bw.jpg,2.857144,-0.3809524,blackwhite,moob25,2022-04-28_00h24.07.114,ratings,2022.1.1,Win32,60.0240096
0.533707865,2.894,-1.516853933,7.241,0,384,384,565,1,1037_e2eb929a6de79a63ce6cfe5321fcb74a203b134e4094932d90b01d99_bw.jpg,2.651956,0.0,blackwhite,moob25,2022-04-28_00h24.07.114,ratings,2022.1.1,Win32,60.0240096
-0.486891386,2.372,-0.402621723,2.889,0,385,385,207,1,381_5935a9f9796adce2f1539af6c75bcdc0c80d847a2ce9b77cf59b7672_blur.jpg,-1.327432,-0.442476,blurring,moob25,2022-04-28_00h24.07.114,ratings,2022.1.1,Win32,60.0240096
-0.168539326,5.962,-0.140449438,5.105,0,386,386,268,1,431_ab5a1dbbe9292ac7f74e276cdabcd372e2c1f852ff34bf7cc6646ef8_circblurint.jpg,3.102584,0.354334,circularblurringint,moob25,2022-04-28_00h24.07.114,ratings,2022.1.1,Win32,60.0240096
1.638576779,2.731,1.451310861,7.157,0,387,387,178,1,368_6507b94d7d0199f14efd3706db30c9c44b96085f84e9cc7792e3e0ae_circblurint.jpg,1.959544,0.400336,circularblurringint,moob25,2022-04-28_00h24.07.114,ratings,2022.1.1,Win32,60.0240096
0.58988764,6.422,-0.299625468,9.578,0,388,388,564,1,1037_e2eb929a6de79a63ce6cfe5321fcb74a203b134e4094932d90b01d99_orig.jpg,2.651956,0.0,original,moob25,2022-04-28_00h24.07.114,ratings,2022.1.1,Win32,60.0240096
-0.496254682,1.139,-0.337078652,1.837,0,389,389,548,1,1010_06d15f44b979c086561137000ec070ba4cd479856f92840a7850b2bf_edges.jpg,0.189786,-0.189786,edges,moob25,2022-04-28_00h24.07.114,ratings,2022.1.1,Win32,60.0240096
0.833333333,1.589,1.151685393,5.422,0,390,390,577,1,1061_665178b9cb0bc869cc2e2b68def4838db04e66f9531098fb75875a09_bw.jpg,0.3492064,-0.3174604,blackwhite,moob25,2022-04-28_00h24.07.114,ratings,2022.1.1,Win32,60.0240096
-0.646067416,1.549,0.449438202,2.115,0,391,391,583,1,1225_59c67a821456f2cce3e5acf66d7f00076bd02caffc984c1eb0df794e_bw.jpg,-0.444444,3.809524,blackwhite,moob25,2022-04-28_00h24.07.114,ratings,2022.1.1,Win32,60.0240096
-0.468164794,1.427,-0.440074906,1.739,0,392,392,107,1,284_cdcbd54fc995081ac95c8b2c37a19cebb341f61a8eb268cee1623492_circblurext.jpg,-1.015872,2.095236,circularblurringext,moob25,2022-04-28_00h24.07.114,ratings,2022.1.1,Win32,60.0240096
-0.290262172,0.989,-0.327715356,1.311,0,393,393,584,1,1225_59c67a821456f2cce3e5acf66d7f00076bd02caffc984c1eb0df794e_edges.jpg,-0.444444,3.809524,edges,moob25,2022-04-28_00h24.07.114,ratings,2022.1.1,Win32,60.0240096
-0.823970037,1.158,0.131086142,1.723,0,394,394,242,1,411_adfd0d5782129756321ff671d0cfb712528504c66c863df11aabd1e7_edges.jpg,-3.392332,-1.369576,edges,moob25,2022-04-28_00h24.07.114,ratings,2022.1.1,Win32,60.0240096
0.74906367,2.207,1.563670412,3.656,0,395,395,433,1,694_f80f33613b268beffd6c044537cf3b44a84683d6e889bc37b8e9c34b_bw.jpg,-0.3785616,3.34728,blackwhite,moob25,2022-04-28_00h24.07.114,ratings,2022.1.1,Win32,60.0240096
0.177902622,1.664,0.037453184,2.139,0,396,396,69,1,172_c641c6c56ca6b594b773084e1363c852abdb65f988d7ff802ee503f2_blur.jpg,0.379572,0.01725328,blurring,moob25,2022-04-28_00h24.07.114,ratings,2022.1.1,Win32,60.0240096
0.009363296,1.522,-0.149812734,2.231,0,397,397,435,1,694_f80f33613b268beffd6c044537cf3b44a84683d6e889bc37b8e9c34b_blur.jpg,-0.3785616,3.34728,blurring,moob25,2022-04-28_00h24.07.114,ratings,2022.1.1,Win32,60.0240096
-0.440074906,2.71,-0.084269663,3.522,0,398,398,378,1,640_0ddb4981a5f5842ed5b4f7ef941be53779189df5e718b1fc5475ad80_orig.jpg,2.571428,-1.873016,original,moob25,2022-04-28_00h24.07.114,ratings,2022.1.1,Win32,60.0240096
0.112359551,1.522,0.936329588,3.788,0,399,399,187,1,369_c99797771115d7627d4abe3415f814497288f91a7be1a04c17c776b9_bw.jpg,3.619824,-0.174216,blackwhite,moob25,2022-04-28_00h24.07.114,ratings,2022.1.1,Win32,60.0240096
0.177902622,3.629,-0.646067416,5.056,0,400,400,29,1,59_8568373b727f29d67ba6ce4c360dd918c8b08b13495fca56bdda5e82_circblurext.jpg,2.064896,0.505688,circularblurringext,moob25,2022-04-28_00h24.07.114,ratings,2022.1.1,Win32,60.0240096
-1.423220974,23.989,0.337078652,31.843,0,401,401,367,1,616_05a637f5281666f53d4e2ef69351485fc21d629b37ee2006b2076eb6_bw.jpg,-2.380952,-0.832364,blackwhite,moob25,2022-04-28_00h24.07.114,ratings,2022.1.1,Win32,60.0240096
0.065543071,5.022,0.084269663,5.744,0,402,402,53,1,112_b6a4ce721c2e42943d7d8b168751d74cd2f372b1cd4fed5a4404faec_circblurext.jpg,2.107036,0.505688,circularblurringext,moob25,2022-04-28_00h24.07.114,ratings,2022.1.1,Win32,60.0240096
-0.486891386,1.314,-0.458801498,2.438,0,403,403,555,1,1014_a5c212ca979d482cf94c2db7697aba75620391a64b030ab7ad2bbecf_blur.jpg,-3.174604,-1.374372,blurring,moob25,2022-04-28_00h24.07.114,ratings,2022.1.1,Win32,60.0240096
-0.402621723,3.515,-0.308988764,4.389,0,404,404,188,1,369_c99797771115d7627d4abe3415f814497288f91a7be1a04c17c776b9_edges.jpg,3.619824,-0.174216,edges,moob25,2022-04-28_00h24.07.114,ratings,2022.1.1,Win32,60.0240096
-0.327715356,1.098,-0.411985019,1.51,0,405,405,332,1,482_a1cd28915c5044c018195ab0fff10dcc95e385246b045a7cd4463ff7_edges.jpg,-3.361852,-1.555612,edges,moob25,2022-04-28_00h24.07.114,ratings,2022.1.1,Win32,60.0240096
-2.153558052,2.139,0.599250936,4.322,0,406,406,372,1,620_9674719009d75dcfeaed7f15932c43e1fd1af5e25d47b8aadd61efe2_orig.jpg,-0.561364,1.142084,original,moob25,2022-04-28_00h24.07.114,ratings,2022.1.1,Win32,60.0240096
-1.535580524,1.589,0.889513109,2.477,0,407,407,249,1,414_0187bdf7007109b487865b6a9d388997a6817acf052a6a7cdd5b39d9_blur.jpg,-2.786708,-1.133056,blurring,moob25,2022-04-28_00h24.07.114,ratings,2022.1.1,Win32,60.0240096
-0.758426966,1.164,-0.093632959,1.973,0,408,408,375,1,620_9674719009d75dcfeaed7f15932c43e1fd1af5e25d47b8aadd61efe2_blur.jpg,-0.561364,1.142084,blurring,moob25,2022-04-28_00h24.07.114,ratings,2022.1.1,Win32,60.0240096
-0.187265918,1.189,-0.140449438,1.754,0,409,409,116,1,332_4d584229bdae2e1782f77f0e953e528f13c3dfa79b4b94736c0310fa_edges.jpg,3.157348,0.483092,edges,moob25,2022-04-28_00h24.07.114,ratings,2022.1.1,Win32,60.0240096
-0.440074906,5.346,-0.252808989,3.979,0,410,410,89,1,243_beddb302dcb21071d88c8d2cab07002050d36b3001ef28f89389fa56_circblurext.jpg,-0.3450656,-0.2070392,circularblurringext,moob25,2022-04-28_00h24.07.114,ratings,2022.1.1,Win32,60.0240096
-0.43071161,3.026,0.374531835,3.715,0,411,411,487,1,818_877aae033c31e3bbca4486321a5307f87cf53c576c546462d3daf194_bw.jpg,-1.277584,0.619436,blackwhite,moob25,2022-04-28_00h24.07.114,ratings,2022.1.1,Win32,60.0240096
-0.121722846,4.055,-0.196629213,2.438,0,412,412,21,1,48_2cc936b2483ab2944c9158e163342b874ef6c1492fd8fca08c0e096e_blur.jpg,-1.264224,-0.779604,blurring,moob25,2022-04-28_00h24.07.114,ratings,2022.1.1,Win32,60.0240096
-0.337078652,1.389,-0.374531835,3.41,0,413,413,218,1,396_208259ea431d47bb7f3946213eb099834eb119756ce304ad473d4d9f_edges.jpg,2.857144,-0.3809524,edges,moob25,2022-04-28_00h24.07.114,ratings,2022.1.1,Win32,60.0240096
-0.421348315,2.381,-0.402621723,2.892,0,414,414,194,1,379_eeaa6d9bf5a4ef205dc48bc505cf3a7f24ea86e99af9b371e03602a7_edges.jpg,-0.3926308,2.88936,edges,moob25,2022-04-28_00h24.07.114,ratings,2022.1.1,Win32,60.0240096
0.543071161,1.44,0.524344569,3.009,0,415,415,30,1,60_ad52063167538de24f94d7dfd04808cb94cf8f426c40871d2f126505_orig.jpg,2.158732,0.0,original,moob25,2022-04-28_00h24.07.114,ratings,2022.1.1,Win32,60.0240096
-0.374531835,4.612,-0.290262172,3.48,0,416,416,146,1,354_e46c3ec6fb00773f64f2bcd212385f253c389808fe724b7cf8611051_edges.jpg,2.018292,0.0,edges,moob25,2022-04-28_00h24.07.114,ratings,2022.1.1,Win32,60.0240096
-0.402621723,1.491,0.131086142,4.721,0,417,417,38,1,82_43f4d5aec7c2e5bd495473f6708a0f2d47c9fe34e1fe9436646cb036_edges.jpg,2.022756,0.505688,edges,moob25,2022-04-28_00h24.07.114,ratings,2022.1.1,Win32,60.0240096
0.411985019,1.424,0.140449438,2.092,0,418,418,381,1,640_0ddb4981a5f5842ed5b4f7ef941be53779189df5e718b1fc5475ad80_blur.jpg,2.571428,-1.873016,blurring,moob25,2022-04-28_00h24.07.114,ratings,2022.1.1,Win32,60.0240096
-0.093632959,1.757,0.131086142,3.148,0,419,419,23,1,48_2cc936b2483ab2944c9158e163342b874ef6c1492fd8fca08c0e096e_circblurext.jpg,-1.264224,-0.779604,circularblurringext,moob25,2022-04-28_00h24.07.114,ratings,2022.1.1,Win32,60.0240096
-0.58988764,4.33,-0.580524345,6.104,0,420,420,159,1,358_157f8ac929713531a15b1ecf115e7b659cb90e83d675251e368d165f_blur.jpg,-3.777776,-0.571428,blurring,moob25,2022-04-28_00h24.07.114,ratings,2022.1.1,Win32,60.0240096
0.655430712,2.874,1.310861423,4.02,0,421,421,91,1,258_d26019382777d2159a974a7654923e71598135ce2cd710cea1f92865_bw.jpg,3.497684,-0.61104,blackwhite,moob25,2022-04-28_00h24.07.114,ratings,2022.1.1,Win32,60.0240096
-0.702247191,5.338,0.084269663,36.34,0,422,422,574,1,1039_d64da8480fc6e94dcdc513237d600570ae0b9fe48795ac6a8b2d29a7_circblurint.jpg,-2.507936,-1.142856,circularblurringint,moob25,2022-04-28_00h24.07.114,ratings,2022.1.1,Win32,60.0240096
-0.018726592,13.212,-0.777153558,13.839,0,423,423,520,1,860_05c4e22518a30d3d2add458a8fc6488f87b9b02dd8e385ded939f025_circblurint.jpg,1.955092,0.3097172,circularblurringint,moob25,2022-04-28_00h24.07.114,ratings,2022.1.1,Win32,60.0240096
-0.505617978,2.191,-0.365168539,2.846,0,424,424,203,1,380_34772591c787182a37724027eac6948ebc9d4064f6a601d23b923b8e_circblurext.jpg,2.222224,-0.063492,circularblurringext,moob25,2022-04-28_00h24.07.114,ratings,2022.1.1,Win32,60.0240096
-0.486891386,1.262,-0.458801498,1.741,0,425,425,213,1,394_8e3a0cb945144d53bd1ace04b6256237ed9dcbbd9cb83f8a4886b0e6_blur.jpg,-2.593884,2.651956,blurring,moob25,2022-04-28_00h24.07.114,ratings,2022.1.1,Win32,60.0240096
-0.402621723,1.539,-0.346441948,2.026,0,426,426,371,1,616_05a637f5281666f53d4e2ef69351485fc21d629b37ee2006b2076eb6_circblurext.jpg,-2.380952,-0.832364,circularblurringext,moob25,2022-04-28_00h24.07.114,ratings,2022.1.1,Win32,60.0240096
0.468164794,2.972,-0.121722846,4.438,0,427,427,1,1,13_771f4fcf0a212d25d6a78565e7f34cc5ddd823e7afbdc77ef063326e_bw.jpg,2.190476,0.0,blackwhite,moob25,2022-04-28_00h24.07.114,ratings,2022.1.1,Win32,60.0240096
-1.573033708,1.511,0.243445693,6.361,0,428,428,127,1,349_18d92ef5c21ca70a3dd237aad251594e1688bbe01d8cff37b89c46b8_bw.jpg,-2.74874,-1.258228,blackwhite,moob25,2022-04-28_00h24.07.114,ratings,2022.1.1,Win32,60.0240096
-1.535580524,1.957,1.048689139,2.707,0,429,429,136,1,349_8809a67686d34844c915d7700e2ea72ad1c02ae232ae0d3cc0e458d4_circblurint.jpg,-3.619048,-0.2857144,circularblurringint,moob25,2022-04-28_00h24.07.114,ratings,2022.1.1,Win32,60.0240096
-2.247191011,2.589,0.692883895,3.556,0,430,430,88,1,243_beddb302dcb21071d88c8d2cab07002050d36b3001ef28f89389fa56_circblurint.jpg,-0.3450656,-0.2070392,circularblurringint,moob25,2022-04-28_00h24.07.114,ratings,2022.1.1,Win32,60.0240096
-0.374531835,1.378,-0.224719101,2.023,0,431,431,455,1,716_2ab64478147184c4df720a52cf621875addc9007cb2967e4a9a88909_circblurext.jpg,2.428484,0.0,circularblurringext,moob25,2022-04-28_00h24.07.114,ratings,2022.1.1,Win32,60.0240096
0.084269663,3.338,-0.168539326,3.944,0,432,432,74,1,236_f645730e1eb06155418c9a571329cc7fa320654fcaaedf1048b5cc11_edges.jpg,2.253968,0.0,edges,moob25,2022-04-28_00h24.07.114,ratings,2022.1.1,Win32,60.0240096
-0.43071161,1.355,-0.355805243,2.38,0,433,433,86,1,243_beddb302dcb21071d88c8d2cab07002050d36b3001ef28f89389fa56_edges.jpg,-0.3450656,-0.2070392,edges,moob25,2022-04-28_00h24.07.114,ratings,2022.1.1,Win32,60.0240096
-0.327715356,2.236,-0.365168539,2.876,0,434,434,428,1,694_7a14b8ab7c564dcb0f628c4de7f6cb54e4c5f6601f774bf167641c37_edges.jpg,1.819588,0.116144,edges,moob25,2022-04-28_00h24.07.114,ratings,2022.1.1,Win32,60.0240096
0.777153558,1.438,0.898876404,2.574,0,435,435,52,1,112_b6a4ce721c2e42943d7d8b168751d74cd2f372b1cd4fed5a4404faec_circblurint.jpg,2.107036,0.505688,circularblurringint,moob25,2022-04-28_00h24.07.114,ratings,2022.1.1,Win32,60.0240096
0.533707865,1.845,0.009363296,5.227,0,436,436,467,1,736_bb85db1bcda8eb34299aa5791ac65a0a7c343266eb2d6e6e328ec0e1_circblurext.jpg,3.650792,-0.03174604,circularblurringext,moob25,2022-04-28_00h24.07.114,ratings,2022.1.1,Win32,60.0240096
-0.355805243,28.614,-0.393258427,27.073,0,437,437,153,1,355_00a76f54934d36566dd0e7b091b8aa6a56d8e6b32d349aa578a10b45_blur.jpg,2.910052,0.3439152,blurring,moob25,2022-04-28_00h24.07.114,ratings,2022.1.1,Win32,60.0240096
-0.43071161,29.81,0.337078652,31.055,0,438,438,404,1,686_6745b57686ad5d1bd6cf3e7ed5bc0243a154f8939e88e30321dfcfdb_edges.jpg,-1.523808,3.650792,edges,moob25,2022-04-28_00h24.07.114,ratings,2022.1.1,Win32,60.0240096
-0.992509363,2.857,0.627340824,6.009,0,439,439,394,1,663_aaf52107fe3a86392530d88b34e86f9d2b6820714cad98d1e3c2cb67_circblurint.jpg,2.58766,0.0918696,circularblurringint,moob25,2022-04-28_00h24.07.114,ratings,2022.1.1,Win32,60.0240096
0.43071161,1.54,0.561797753,2.496,0,440,440,288,1,442_7449d79dae5d652af9b2429872cabdef938646ba024db2f431b3b28d_orig.jpg,1.619048,0.126984,original,moob25,2022-04-28_00h24.07.114,ratings,2022.1.1,Win32,60.0240096
-0.018726592,5.756,-0.252808989,6.523,0,441,441,199,1,380_34772591c787182a37724027eac6948ebc9d4064f6a601d23b923b8e_bw.jpg,2.222224,-0.063492,blackwhite,moob25,2022-04-28_00h24.07.114,ratings,2022.1.1,Win32,60.0240096
-1.179775281,1.863,0.880149813,3.14,0,442,442,396,1,683_a004ad18331da968da5debdd15e1447dd7748750af0bc6c57b844200_orig.jpg,-2.91956,2.466524,original,moob25,2022-04-28_00h24.07.114,ratings,2022.1.1,Win32,60.0240096
-0.43071161,1.377,-0.112359551,1.938,0,443,443,563,1,1022_cf035e583d41a856836f8b0ae314ecbe79dffd9e40ef6a08cc26028f_circblurext.jpg,-0.2516452,3.05846,circularblurringext,moob25,2022-04-28_00h24.07.114,ratings,2022.1.1,Win32,60.0240096
-0.271535581,1.179,-0.140449438,1.909,0,444,444,530,1,915_dc9fd40a3b5d64a180833a7bac86e7556c24f681f473fe255e41f936_edges.jpg,-3.09294,-0.918696,edges,moob25,2022-04-28_00h24.07.114,ratings,2022.1.1,Win32,60.0240096
0.758426966,17.01,0.571161049,16.23,0,445,445,7,1,28_6318543b74eeb646a1735477ebc023fdc9ac3849bc0db1957c272a26_bw.jpg,2.811244,-0.74584,blackwhite,moob25,2022-04-28_00h24.07.114,ratings,2022.1.1,Win32,60.0240096
-0.411985019,1.139,-0.224719101,1.491,0,446,446,212,1,394_8e3a0cb945144d53bd1ace04b6256237ed9dcbbd9cb83f8a4886b0e6_edges.jpg,-2.593884,2.651956,edges,moob25,2022-04-28_00h24.07.114,ratings,2022.1.1,Win32,60.0240096
-1.142322097,3.675,1.582397004,2.522,0,447,447,312,1,459_46e25de472bb056cb470716d30937415f7344bfc4354d6eb710d8c9f_orig.jpg,0.03174604,0.0,original,moob25,2022-04-28_00h24.07.114,ratings,2022.1.1,Win32,60.0240096
-0.31835206,1.68,-0.290262172,2.344,0,448,448,308,1,455_34a7d8167619d110206c369e3f7dce8a3f99db763a9d8e2b956501d3_edges.jpg,-2.526412,-0.3827896,edges,moob25,2022-04-28_00h24.07.114,ratings,2022.1.1,Win32,60.0240096
-0.187265918,1.311,-0.327715356,2.839,0,449,449,254,1,416_5eb54976bb41ce2a6d129ef985f792e716f010fb9b69b15f50f5d2db_edges.jpg,-2.58766,2.602972,edges,moob25,2022-04-28_00h24.07.114,ratings,2022.1.1,Win32,60.0240096
1.132958801,1.371,1.198501873,4.711,0,450,450,43,1,92_5d20d78a8e57e628c6930676473a4e0a485e715841efd6286c660020_bw.jpg,2.126984,0.0,blackwhite,moob25,2022-04-28_00h24.07.114,ratings,2022.1.1,Win32,60.0240096
-1.245318352,2.072,0.758426966,2.673,0,451,451,306,1,455_34a7d8167619d110206c369e3f7dce8a3f99db763a9d8e2b956501d3_orig.jpg,-2.526412,-0.3827896,original,moob25,2022-04-28_00h24.07.114,ratings,2022.1.1,Win32,60.0240096
