valence_slider.response,valence_slider.rt,arousal_slider.response,arousal_slider.rt,trials.thisRepN,trials.thisTrialN,trials.thisN,trials.thisIndex,trials.ran,img_name,vm,am,manipulation,participant,date,expName,psychopyVersion,OS,frameRate
-2.986891386,8.2402,2.237827715,54.1152,0,0,0,497,1,824_b1d91cc824ce0d3d383d3147da88d3d6dbaf6be918bab79e3ec8f501_circblurext.jpg,-3.645176,-1.432784,circularblurringext,nipe10,2022-04-19_14h42.11.715,ratings,2022.1.1,Linux x86_64,74.97375918
-1.479400749,17.889,-1.020599251,21.7623,0,1,1,301,1,453_54f106fd1d4b65fa4aa347407127fc30d49f791e81aee3a0bbe44489_bw.jpg,2.222224,0.0,blackwhite,nipe10,2022-04-19_14h42.11.715,ratings,2022.1.1,Linux x86_64,74.97375918
0.299625468,7.9162,-1.170411985,9.8998,0,2,2,476,1,748_e519892faa7c772a0afaf9eeff36cf0e411574027ab3d9aa4947a048_edges.jpg,-1.813112,3.307432,edges,nipe10,2022-04-19_14h42.11.715,ratings,2022.1.1,Linux x86_64,74.97375918
-1.104868914,6.3191,-1.301498127,9.4675,0,3,3,415,1,692_7d7eaf20e6de8956f0fca7500ace97a8599aa8b605a7d690cdb28724_bw.jpg,-2.063492,-1.26984,blackwhite,nipe10,2022-04-19_14h42.11.715,ratings,2022.1.1,Linux x86_64,74.97375918
1.947565543,25.4985,1.479400749,27.4414,0,4,4,201,1,380_34772591c787182a37724027eac6948ebc9d4064f6a601d23b923b8e_blur.jpg,2.222224,-0.063492,blurring,nipe10,2022-04-19_14h42.11.715,ratings,2022.1.1,Linux x86_64,74.97375918
0.627340824,9.6191,-1.058052434,10.2688,0,5,5,254,1,416_5eb54976bb41ce2a6d129ef985f792e716f010fb9b69b15f50f5d2db_edges.jpg,-2.58766,2.602972,edges,nipe10,2022-04-19_14h42.11.715,ratings,2022.1.1,Linux x86_64,74.97375918
-0.440074906,3.5681,-0.252808989,6.3999,0,6,6,140,1,353_44e285740cb41818482ac93fc5fbd72c18029444a1d7506c9fc053e7_edges.jpg,-3.232676,-0.87108,edges,nipe10,2022-04-19_14h42.11.715,ratings,2022.1.1,Linux x86_64,74.97375918
-1.573033708,15.9896,1.264044944,19.389,0,7,7,502,1,854_081a8409e4d6d10923b2dedcc16a3fca405fcd602e55a20d84cac69d_circblurint.jpg,3.088264,1.21538,circularblurringint,nipe10,2022-04-19_14h42.11.715,ratings,2022.1.1,Linux x86_64,74.97375918
-1.769662921,4.8161,-0.074906367,7.3095,0,8,8,549,1,1010_06d15f44b979c086561137000ec070ba4cd479856f92840a7850b2bf_blur.jpg,0.189786,-0.189786,blurring,nipe10,2022-04-19_14h42.11.715,ratings,2022.1.1,Linux x86_64,74.97375918
-2.031835206,16.0736,1.582397004,16.8908,0,9,9,4,1,13_771f4fcf0a212d25d6a78565e7f34cc5ddd823e7afbdc77ef063326e_circblurint.jpg,2.190476,0.0,circularblurringint,nipe10,2022-04-19_14h42.11.715,ratings,2022.1.1,Linux x86_64,74.97375918
0.046816479,6.4074,-1.104868914,7.7242,0,10,10,92,1,258_d26019382777d2159a974a7654923e71598135ce2cd710cea1f92865_edges.jpg,3.497684,-0.61104,edges,nipe10,2022-04-19_14h42.11.715,ratings,2022.1.1,Linux x86_64,74.97375918
-2.968164794,17.9994,2.003745318,15.7512,0,11,11,403,1,686_6745b57686ad5d1bd6cf3e7ed5bc0243a154f8939e88e30321dfcfdb_bw.jpg,-1.523808,3.650792,blackwhite,nipe10,2022-04-19_14h42.11.715,ratings,2022.1.1,Linux x86_64,74.97375918
-0.889513109,6.9983,-1.507490637,10.8347,0,12,12,86,1,243_beddb302dcb21071d88c8d2cab07002050d36b3001ef28f89389fa56_edges.jpg,-0.3450656,-0.2070392,edges,nipe10,2022-04-19_14h42.11.715,ratings,2022.1.1,Linux x86_64,74.97375918
-1.928838951,6.4141,0.617977528,8.2067,0,13,13,580,1,1061_665178b9cb0bc869cc2e2b68def4838db04e66f9531098fb75875a09_circblurint.jpg,0.3492064,-0.3174604,circularblurringint,nipe10,2022-04-19_14h42.11.715,ratings,2022.1.1,Linux x86_64,74.97375918
1.310861423,4.7965,-2.584269663,20.6058,0,14,14,383,1,640_0ddb4981a5f5842ed5b4f7ef941be53779189df5e718b1fc5475ad80_circblurext.jpg,2.571428,-1.873016,circularblurringext,nipe10,2022-04-19_14h42.11.715,ratings,2022.1.1,Linux x86_64,74.97375918
2.219101124,3.6401,-3.314606742,6.8408,0,15,15,541,1,1005_b980c0747d20935bc63cc27a9e05ce2ff5bae98f859872ec48edd7f5_bw.jpg,3.428572,-0.476192,blackwhite,nipe10,2022-04-19_14h42.11.715,ratings,2022.1.1,Linux x86_64,74.97375918
-2.443820225,9.9363,1.320224719,11.943,0,16,16,163,1,361_b5541309527dc3c2422f45a95ebb0ed32005e6fe10d0489a1ff1fbdc_bw.jpg,-3.987612,-0.2516452,blackwhite,nipe10,2022-04-19_14h42.11.715,ratings,2022.1.1,Linux x86_64,74.97375918
0.683520599,6.3313,0.262172285,8.565,0,17,17,444,1,709_69c01dcde028a2a1a913f1a2a5026ae1748484f75c89217a040c6791_orig.jpg,1.432444,-0.01935732,original,nipe10,2022-04-19_14h42.11.715,ratings,2022.1.1,Linux x86_64,74.97375918
1.657303371,6.967,0.936329588,8.9932,0,18,18,411,1,687_e3b018945792a574962235c88c553b7c318c75eec2596478e8a7b877_blur.jpg,3.63918,-0.42586,blurring,nipe10,2022-04-19_14h42.11.715,ratings,2022.1.1,Linux x86_64,74.97375918
-2.865168539,1.4622,1.5917603,3.3616,0,19,19,537,1,986_a77edb21e78bc3a6aa7406517824596b3496ad6c657b6befb84cf370_blur.jpg,-3.906316,-0.60496,blurring,nipe10,2022-04-19_14h42.11.715,ratings,2022.1.1,Linux x86_64,74.97375918
-1.460674157,4.5192,0.861423221,11.3714,0,20,20,515,1,858_2f6539ee36aba48c38dc716d4f7c3ae93367d6ddf23ab41745d4172c_circblurext.jpg,0.0623832,0.176752,circularblurringext,nipe10,2022-04-19_14h42.11.715,ratings,2022.1.1,Linux x86_64,74.97375918
-1.264044944,8.4314,0.47752809,12.9156,0,21,21,347,1,494_5c6c3b85a2734a43c24bfe337d42ffcc82b7347227804d01c784cef4_circblurext.jpg,0.03871468,0.0,circularblurringext,nipe10,2022-04-19_14h42.11.715,ratings,2022.1.1,Linux x86_64,74.97375918
-1.179775281,30.7494,-0.112359551,32.3486,0,22,22,326,1,468_8b69b13120daebadd8a4a3166e1419f2404395cba231307a4efa9fde_edges.jpg,2.031744,0.2539684,edges,nipe10,2022-04-19_14h42.11.715,ratings,2022.1.1,Linux x86_64,74.97375918
1.395131086,6.8886,-1.441947566,9.688,0,23,23,149,1,354_e46c3ec6fb00773f64f2bcd212385f253c389808fe724b7cf8611051_circblurext.jpg,2.018292,0.0,circularblurringext,nipe10,2022-04-19_14h42.11.715,ratings,2022.1.1,Linux x86_64,74.97375918
1.919475655,3.1008,-2.425093633,5.7006,0,24,24,545,1,1005_b980c0747d20935bc63cc27a9e05ce2ff5bae98f859872ec48edd7f5_circblurext.jpg,3.428572,-0.476192,circularblurringext,nipe10,2022-04-19_14h42.11.715,ratings,2022.1.1,Linux x86_64,74.97375918
0.711610487,4.6651,-0.861423221,6.8497,0,25,25,177,1,368_6507b94d7d0199f14efd3706db30c9c44b96085f84e9cc7792e3e0ae_blur.jpg,1.959544,0.400336,blurring,nipe10,2022-04-19_14h42.11.715,ratings,2022.1.1,Linux x86_64,74.97375918
1.54494382,10.8163,-1.70411985,8.9161,0,26,26,78,1,242_85283f6935a89812ab229dcad9ba184529c9242ac3106d768ecf3ab3_orig.jpg,2.14918,-0.2949852,original,nipe10,2022-04-19_14h42.11.715,ratings,2022.1.1,Linux x86_64,74.97375918
1.011235955,6.7419,-2.593632959,11.6321,0,27,27,356,1,500_3b520c7f352afa1a9f8c07e56cc0588cdc04d25ff6e7b602b5e280cb_edges.jpg,-0.8328,3.11766,edges,nipe10,2022-04-19_14h42.11.715,ratings,2022.1.1,Linux x86_64,74.97375918
-1.573033708,4.3223,-0.711610487,11.9488,0,28,28,275,1,434_ba36d91204d7e578001f6a545d7501e65d209554def5a3c8b7583825_circblurext.jpg,-3.523808,1.428572,circularblurringext,nipe10,2022-04-19_14h42.11.715,ratings,2022.1.1,Linux x86_64,74.97375918
-0.823970037,5.9232,-1.329588015,8.688,0,29,29,293,1,442_7449d79dae5d652af9b2429872cabdef938646ba024db2f431b3b28d_circblurext.jpg,1.619048,0.126984,circularblurringext,nipe10,2022-04-19_14h42.11.715,ratings,2022.1.1,Linux x86_64,74.97375918
-1.367041199,6.1164,0.823970037,7.5674,0,30,30,26,1,59_8568373b727f29d67ba6ce4c360dd918c8b08b13495fca56bdda5e82_edges.jpg,2.064896,0.505688,edges,nipe10,2022-04-19_14h42.11.715,ratings,2022.1.1,Linux x86_64,74.97375918
1.170411985,5.4492,-1.760299625,6.6489,0,31,31,256,1,416_5eb54976bb41ce2a6d129ef985f792e716f010fb9b69b15f50f5d2db_circblurint.jpg,-2.58766,2.602972,circularblurringint,nipe10,2022-04-19_14h42.11.715,ratings,2022.1.1,Linux x86_64,74.97375918
-2.65917603,3.7994,1.900749064,4.6833,0,32,32,407,1,686_6745b57686ad5d1bd6cf3e7ed5bc0243a154f8939e88e30321dfcfdb_circblurext.jpg,-1.523808,3.650792,circularblurringext,nipe10,2022-04-19_14h42.11.715,ratings,2022.1.1,Linux x86_64,74.97375918
1.320224719,12.5811,1.170411985,15.7147,0,33,33,477,1,748_e519892faa7c772a0afaf9eeff36cf0e411574027ab3d9aa4947a048_blur.jpg,-1.813112,3.307432,blurring,nipe10,2022-04-19_14h42.11.715,ratings,2022.1.1,Linux x86_64,74.97375918
-1.769662921,3.8653,1.151685393,5.7983,0,34,34,422,1,692_e3e3bf88684fbbcdb9849a4147f9e2fcd39b0f083554a829aca4e9fa_edges.jpg,-0.44522,3.135888,edges,nipe10,2022-04-19_14h42.11.715,ratings,2022.1.1,Linux x86_64,74.97375918
-1.095505618,9.1334,1.189138577,21.666,0,35,35,248,1,414_0187bdf7007109b487865b6a9d388997a6817acf052a6a7cdd5b39d9_edges.jpg,-2.786708,-1.133056,edges,nipe10,2022-04-19_14h42.11.715,ratings,2022.1.1,Linux x86_64,74.97375918
-2.855805243,3.1404,1.900749064,5.3824,0,36,36,453,1,716_2ab64478147184c4df720a52cf621875addc9007cb2967e4a9a88909_blur.jpg,2.428484,0.0,blurring,nipe10,2022-04-19_14h42.11.715,ratings,2022.1.1,Linux x86_64,74.97375918
0.299625468,4.4432,0.365168539,6.6444,0,37,37,3,1,13_771f4fcf0a212d25d6a78565e7f34cc5ddd823e7afbdc77ef063326e_blur.jpg,2.190476,0.0,blurring,nipe10,2022-04-19_14h42.11.715,ratings,2022.1.1,Linux x86_64,74.97375918
1.161048689,4.2268,-1.217228464,5.3225,0,38,38,430,1,694_7a14b8ab7c564dcb0f628c4de7f6cb54e4c5f6601f774bf167641c37_circblurint.jpg,1.819588,0.116144,circularblurringint,nipe10,2022-04-19_14h42.11.715,ratings,2022.1.1,Linux x86_64,74.97375918
2.415730337,75.9983,-2.471910112,77.882,0,39,39,349,1,498_305b74cdc4784d9d25e72724302e5402def70177ea31ae7e25fab66b_bw.jpg,3.04762,-0.444444,blackwhite,nipe10,2022-04-19_14h42.11.715,ratings,2022.1.1,Linux x86_64,74.97375918
-1.498127341,7.2621,1.001872659,11.0588,0,40,40,551,1,1010_06d15f44b979c086561137000ec070ba4cd479856f92840a7850b2bf_circblurext.jpg,0.189786,-0.189786,circularblurringext,nipe10,2022-04-19_14h42.11.715,ratings,2022.1.1,Linux x86_64,74.97375918
-1.479400749,5.146,0.936329588,7.1557,0,41,41,567,1,1037_e2eb929a6de79a63ce6cfe5321fcb74a203b134e4094932d90b01d99_blur.jpg,2.651956,0.0,blurring,nipe10,2022-04-19_14h42.11.715,ratings,2022.1.1,Linux x86_64,74.97375918
0.58988764,12.3818,-1.769662921,15.999,0,42,42,361,1,508_a7a9519cdc7aad6844030f4e6cd96cffd1b9c49b71e20ea52789bda2_bw.jpg,-3.000388,-1.29694,blackwhite,nipe10,2022-04-19_14h42.11.715,ratings,2022.1.1,Linux x86_64,74.97375918
1.882022472,5.5818,1.235955056,6.9987,0,43,43,367,1,616_05a637f5281666f53d4e2ef69351485fc21d629b37ee2006b2076eb6_bw.jpg,-2.380952,-0.832364,blackwhite,nipe10,2022-04-19_14h42.11.715,ratings,2022.1.1,Linux x86_64,74.97375918
-1.638576779,12.7318,-1.938202247,9.5168,0,44,44,240,1,411_adfd0d5782129756321ff671d0cfb712528504c66c863df11aabd1e7_orig.jpg,-3.392332,-1.369576,original,nipe10,2022-04-19_14h42.11.715,ratings,2022.1.1,Linux x86_64,74.97375918
0.683520599,3.1496,-1.807116105,24.873,0,45,45,283,1,440_dc6413e2b65369ee2587f4d85621742fe4ca87392d0a8ad2ea7d94e3_bw.jpg,-3.016216,1.69404,blackwhite,nipe10,2022-04-19_14h42.11.715,ratings,2022.1.1,Linux x86_64,74.97375918
2.153558052,2.8928,0.711610487,4.6779,0,46,46,408,1,687_e3b018945792a574962235c88c553b7c318c75eec2596478e8a7b877_orig.jpg,3.63918,-0.42586,original,nipe10,2022-04-19_14h42.11.715,ratings,2022.1.1,Linux x86_64,74.97375918
-1.516853933,11.1739,0.917602996,13.6319,0,47,47,329,1,468_8b69b13120daebadd8a4a3166e1419f2404395cba231307a4efa9fde_circblurext.jpg,2.031744,0.2539684,circularblurringext,nipe10,2022-04-19_14h42.11.715,ratings,2022.1.1,Linux x86_64,74.97375918
-1.357677903,7.9183,-1.657303371,6.3341,0,48,48,156,1,358_157f8ac929713531a15b1ecf115e7b659cb90e83d675251e368d165f_orig.jpg,-3.777776,-0.571428,original,nipe10,2022-04-19_14h42.11.715,ratings,2022.1.1,Linux x86_64,74.97375918
-1.601123596,6.2773,-2.02247191,7.8105,0,49,49,535,1,986_a77edb21e78bc3a6aa7406517824596b3496ad6c657b6befb84cf370_bw.jpg,-3.906316,-0.60496,blackwhite,nipe10,2022-04-19_14h42.11.715,ratings,2022.1.1,Linux x86_64,74.97375918
-0.346441948,5.3434,-1.282771536,25.6609,0,50,50,62,1,156_08e8cf8f04630e9213e610580de73f51572d1d589878648700bae4dc_edges.jpg,2.222224,0.0,edges,nipe10,2022-04-19_14h42.11.715,ratings,2022.1.1,Linux x86_64,74.97375918
-0.683520599,17.6819,0.168539326,12.8319,0,51,51,462,1,736_bb85db1bcda8eb34299aa5791ac65a0a7c343266eb2d6e6e328ec0e1_orig.jpg,3.650792,-0.03174604,original,nipe10,2022-04-19_14h42.11.715,ratings,2022.1.1,Linux x86_64,74.97375918
-2.041198502,3.4319,0.758426966,4.9323,0,52,52,64,1,156_08e8cf8f04630e9213e610580de73f51572d1d589878648700bae4dc_circblurint.jpg,2.222224,0.0,circularblurringint,nipe10,2022-04-19_14h42.11.715,ratings,2022.1.1,Linux x86_64,74.97375918
-2.518726592,1.9761,1.207865169,6.4463,0,53,53,135,1,349_8809a67686d34844c915d7700e2ea72ad1c02ae232ae0d3cc0e458d4_blur.jpg,-3.619048,-0.2857144,blurring,nipe10,2022-04-19_14h42.11.715,ratings,2022.1.1,Linux x86_64,74.97375918
-1.348314607,3.5738,-1.657303371,4.4167,0,54,54,246,1,414_0187bdf7007109b487865b6a9d388997a6817acf052a6a7cdd5b39d9_orig.jpg,-2.786708,-1.133056,original,nipe10,2022-04-19_14h42.11.715,ratings,2022.1.1,Linux x86_64,74.97375918
0.102996255,9.4245,-0.571161049,10.6079,0,55,55,227,1,403_57ac47f43882fc031a6067b1a388c0b2cbe8708dcbd2ff1019932eff_circblurext.jpg,-3.333332,-1.396824,circularblurringext,nipe10,2022-04-19_14h42.11.715,ratings,2022.1.1,Linux x86_64,74.97375918
-0.440074906,1.8323,-0.421348315,2.7153,0,56,56,212,1,394_8e3a0cb945144d53bd1ace04b6256237ed9dcbbd9cb83f8a4886b0e6_edges.jpg,-2.593884,2.651956,edges,nipe10,2022-04-19_14h42.11.715,ratings,2022.1.1,Linux x86_64,74.97375918
0.187265918,3.6272,-0.037453184,5.5269,0,57,57,445,1,709_69c01dcde028a2a1a913f1a2a5026ae1748484f75c89217a040c6791_bw.jpg,1.432444,-0.01935732,blackwhite,nipe10,2022-04-19_14h42.11.715,ratings,2022.1.1,Linux x86_64,74.97375918
1.254681648,25.1019,0.926966292,26.2172,0,58,58,202,1,380_34772591c787182a37724027eac6948ebc9d4064f6a601d23b923b8e_circblurint.jpg,2.222224,-0.063492,circularblurringint,nipe10,2022-04-19_14h42.11.715,ratings,2022.1.1,Linux x86_64,74.97375918
-1.919475655,4.8359,1.029962547,6.2128,0,59,59,250,1,414_0187bdf7007109b487865b6a9d388997a6817acf052a6a7cdd5b39d9_circblurint.jpg,-2.786708,-1.133056,circularblurringint,nipe10,2022-04-19_14h42.11.715,ratings,2022.1.1,Linux x86_64,74.97375918
-1.132958801,6.6153,0.79588015,7.565,0,60,60,382,1,640_0ddb4981a5f5842ed5b4f7ef941be53779189df5e718b1fc5475ad80_circblurint.jpg,2.571428,-1.873016,circularblurringint,nipe10,2022-04-19_14h42.11.715,ratings,2022.1.1,Linux x86_64,74.97375918
0.140449438,14.5162,-0.786516854,17.1659,0,61,61,390,1,663_aaf52107fe3a86392530d88b34e86f9d2b6820714cad98d1e3c2cb67_orig.jpg,2.58766,0.0918696,original,nipe10,2022-04-19_14h42.11.715,ratings,2022.1.1,Linux x86_64,74.97375918
-1.451310861,23.848,-1.610486891,17.7389,0,62,62,217,1,396_208259ea431d47bb7f3946213eb099834eb119756ce304ad473d4d9f_bw.jpg,2.857144,-0.3809524,blackwhite,nipe10,2022-04-19_14h42.11.715,ratings,2022.1.1,Linux x86_64,74.97375918
0.823970037,14.65,0.823970037,22.5153,0,63,63,460,1,720_483c541c48959a597fcf44320941afaf8b7695105f90d65b5f6b30f2_circblurint.jpg,2.158732,-0.2539684,circularblurringint,nipe10,2022-04-19_14h42.11.715,ratings,2022.1.1,Linux x86_64,74.97375918
-2.294007491,2.4148,1.039325843,3.5568,0,64,64,593,1,1228_557412d34d6a70b7c5d222e030aa485b351a4574e8ba1a3112d1d13d_circblurext.jpg,2.137444,0.703464,circularblurringext,nipe10,2022-04-19_14h42.11.715,ratings,2022.1.1,Linux x86_64,74.97375918
1.348314607,11.4454,1.095505618,13.1953,0,65,65,354,1,500_3b520c7f352afa1a9f8c07e56cc0588cdc04d25ff6e7b602b5e280cb_orig.jpg,-0.8328,3.11766,original,nipe10,2022-04-19_14h42.11.715,ratings,2022.1.1,Linux x86_64,74.97375918
-1.38576779,8.2917,-2.134831461,6.009,0,66,66,209,1,381_5935a9f9796adce2f1539af6c75bcdc0c80d847a2ce9b77cf59b7672_circblurext.jpg,-1.327432,-0.442476,circularblurringext,nipe10,2022-04-19_14h42.11.715,ratings,2022.1.1,Linux x86_64,74.97375918
-1.891385768,4.3034,1.292134831,3.4537,0,67,67,50,1,112_b6a4ce721c2e42943d7d8b168751d74cd2f372b1cd4fed5a4404faec_edges.jpg,2.107036,0.505688,edges,nipe10,2022-04-19_14h42.11.715,ratings,2022.1.1,Linux x86_64,74.97375918
-2.134831461,1.9667,-2.490636704,2.8868,0,68,68,132,1,349_8809a67686d34844c915d7700e2ea72ad1c02ae232ae0d3cc0e458d4_orig.jpg,-3.619048,-0.2857144,original,nipe10,2022-04-19_14h42.11.715,ratings,2022.1.1,Linux x86_64,74.97375918
-2.228464419,2.1597,0.95505618,3.8588,0,69,69,46,1,92_5d20d78a8e57e628c6930676473a4e0a485e715841efd6286c660020_circblurint.jpg,2.126984,0.0,circularblurringint,nipe10,2022-04-19_14h42.11.715,ratings,2022.1.1,Linux x86_64,74.97375918
-1.797752809,2.5873,-1.797752809,3.6529,0,70,70,127,1,349_18d92ef5c21ca70a3dd237aad251594e1688bbe01d8cff37b89c46b8_bw.jpg,-2.74874,-1.258228,blackwhite,nipe10,2022-04-19_14h42.11.715,ratings,2022.1.1,Linux x86_64,74.97375918
1.441947566,3.6653,1.54494382,6.4484,0,71,71,583,1,1225_59c67a821456f2cce3e5acf66d7f00076bd02caffc984c1eb0df794e_bw.jpg,-0.444444,3.809524,blackwhite,nipe10,2022-04-19_14h42.11.715,ratings,2022.1.1,Linux x86_64,74.97375918
-2.191011236,1.8151,1.516853933,10.215,0,72,72,251,1,414_0187bdf7007109b487865b6a9d388997a6817acf052a6a7cdd5b39d9_circblurext.jpg,-2.786708,-1.133056,circularblurringext,nipe10,2022-04-19_14h42.11.715,ratings,2022.1.1,Linux x86_64,74.97375918
1.198501873,4.7598,1.151685393,9.6815,0,73,73,564,1,1037_e2eb929a6de79a63ce6cfe5321fcb74a203b134e4094932d90b01d99_orig.jpg,2.651956,0.0,original,nipe10,2022-04-19_14h42.11.715,ratings,2022.1.1,Linux x86_64,74.97375918
-2.02247191,2.7175,-2.191011236,6.8905,0,74,74,319,1,460_e06b3af7ff2f2bfb5f9b6e3d5dc25b9aaa40b84823fac8fd934621bd_bw.jpg,-3.430992,-1.607468,blackwhite,nipe10,2022-04-19_14h42.11.715,ratings,2022.1.1,Linux x86_64,74.97375918
1.666666667,8.7745,1.619850187,7.3578,0,75,75,73,1,236_f645730e1eb06155418c9a571329cc7fa320654fcaaedf1048b5cc11_bw.jpg,2.253968,0.0,blackwhite,nipe10,2022-04-19_14h42.11.715,ratings,2022.1.1,Linux x86_64,74.97375918
-0.983146067,17.4754,-1.376404494,18.6624,0,76,76,380,1,640_0ddb4981a5f5842ed5b4f7ef941be53779189df5e718b1fc5475ad80_edges.jpg,2.571428,-1.873016,edges,nipe10,2022-04-19_14h42.11.715,ratings,2022.1.1,Linux x86_64,74.97375918
-0.880149813,10.6619,-1.179775281,11.4453,0,77,77,103,1,284_cdcbd54fc995081ac95c8b2c37a19cebb341f61a8eb268cee1623492_bw.jpg,-1.015872,2.095236,blackwhite,nipe10,2022-04-19_14h42.11.715,ratings,2022.1.1,Linux x86_64,74.97375918
0.337078652,4.7453,-1.151685393,7.0737,0,78,78,360,1,508_a7a9519cdc7aad6844030f4e6cd96cffd1b9c49b71e20ea52789bda2_orig.jpg,-3.000388,-1.29694,original,nipe10,2022-04-19_14h42.11.715,ratings,2022.1.1,Linux x86_64,74.97375918
-1.722846442,8.6032,1.029962547,7.6988,0,79,79,581,1,1061_665178b9cb0bc869cc2e2b68def4838db04e66f9531098fb75875a09_circblurext.jpg,0.3492064,-0.3174604,circularblurringext,nipe10,2022-04-19_14h42.11.715,ratings,2022.1.1,Linux x86_64,74.97375918
1.123595506,4.2065,0.47752809,9.8155,0,80,80,304,1,453_54f106fd1d4b65fa4aa347407127fc30d49f791e81aee3a0bbe44489_circblurint.jpg,2.222224,0.0,circularblurringint,nipe10,2022-04-19_14h42.11.715,ratings,2022.1.1,Linux x86_64,74.97375918
-2.724719101,7.4793,1.423220974,8.6126,0,81,81,188,1,369_c99797771115d7627d4abe3415f814497288f91a7be1a04c17c776b9_edges.jpg,3.619824,-0.174216,edges,nipe10,2022-04-19_14h42.11.715,ratings,2022.1.1,Linux x86_64,74.97375918
1.329588015,23.5563,1.11423221,24.7563,0,82,82,486,1,818_877aae033c31e3bbca4486321a5307f87cf53c576c546462d3daf194_orig.jpg,-1.277584,0.619436,original,nipe10,2022-04-19_14h42.11.715,ratings,2022.1.1,Linux x86_64,74.97375918
-1.853932584,5.2095,1.189138577,9.2761,0,83,83,448,1,709_69c01dcde028a2a1a913f1a2a5026ae1748484f75c89217a040c6791_circblurint.jpg,1.432444,-0.01935732,circularblurringint,nipe10,2022-04-19_14h42.11.715,ratings,2022.1.1,Linux x86_64,74.97375918
-1.788389513,2.2329,0.973782772,5.338,0,84,84,410,1,687_e3b018945792a574962235c88c553b7c318c75eec2596478e8a7b877_edges.jpg,3.63918,-0.42586,edges,nipe10,2022-04-19_14h42.11.715,ratings,2022.1.1,Linux x86_64,74.97375918
-2.237827715,1.397,1.395131086,2.2616,0,85,85,470,1,741_2b218fb015e3da83db73cacdb52e61e0c2534c1fe255bb1c5c74d47f_edges.jpg,3.140096,0.448584,edges,nipe10,2022-04-19_14h42.11.715,ratings,2022.1.1,Linux x86_64,74.97375918
1.844569288,2.5999,1.554307116,5.8308,0,86,86,47,1,92_5d20d78a8e57e628c6930676473a4e0a485e715841efd6286c660020_circblurext.jpg,2.126984,0.0,circularblurringext,nipe10,2022-04-19_14h42.11.715,ratings,2022.1.1,Linux x86_64,74.97375918
-1.807116105,2.7608,1.376404494,6.7038,0,87,87,221,1,396_208259ea431d47bb7f3946213eb099834eb119756ce304ad473d4d9f_circblurext.jpg,2.857144,-0.3809524,circularblurringext,nipe10,2022-04-19_14h42.11.715,ratings,2022.1.1,Linux x86_64,74.97375918
-0.608614232,29.2279,-1.694756554,27.4824,0,88,88,216,1,396_208259ea431d47bb7f3946213eb099834eb119756ce304ad473d4d9f_orig.jpg,2.857144,-0.3809524,original,nipe10,2022-04-19_14h42.11.715,ratings,2022.1.1,Linux x86_64,74.97375918
-1.151685393,3.3064,-1.666666667,4.8841,0,89,89,225,1,403_57ac47f43882fc031a6067b1a388c0b2cbe8708dcbd2ff1019932eff_blur.jpg,-3.333332,-1.396824,blurring,nipe10,2022-04-19_14h42.11.715,ratings,2022.1.1,Linux x86_64,74.97375918
-1.011235955,3.832,-1.198501873,6.3893,0,90,90,364,1,508_a7a9519cdc7aad6844030f4e6cd96cffd1b9c49b71e20ea52789bda2_circblurint.jpg,-3.000388,-1.29694,circularblurringint,nipe10,2022-04-19_14h42.11.715,ratings,2022.1.1,Linux x86_64,74.97375918
1.975655431,9.0337,-2.537453184,4.7664,0,91,91,490,1,818_877aae033c31e3bbca4486321a5307f87cf53c576c546462d3daf194_circblurint.jpg,-1.277584,0.619436,circularblurringint,nipe10,2022-04-19_14h42.11.715,ratings,2022.1.1,Linux x86_64,74.97375918
-2.696629213,1.5977,1.956928839,2.4646,0,92,92,591,1,1228_557412d34d6a70b7c5d222e030aa485b351a4574e8ba1a3112d1d13d_blur.jpg,2.137444,0.703464,blurring,nipe10,2022-04-19_14h42.11.715,ratings,2022.1.1,Linux x86_64,74.97375918
-1.70411985,5.7626,1.460674157,6.9895,0,93,93,585,1,1225_59c67a821456f2cce3e5acf66d7f00076bd02caffc984c1eb0df794e_blur.jpg,-0.444444,3.809524,blurring,nipe10,2022-04-19_14h42.11.715,ratings,2022.1.1,Linux x86_64,74.97375918
0.852059925,13.5834,0.814606742,14.3131,0,94,94,584,1,1225_59c67a821456f2cce3e5acf66d7f00076bd02caffc984c1eb0df794e_edges.jpg,-0.444444,3.809524,edges,nipe10,2022-04-19_14h42.11.715,ratings,2022.1.1,Linux x86_64,74.97375918
1.741573034,7.4504,-2.397003745,28.0751,0,95,95,146,1,354_e46c3ec6fb00773f64f2bcd212385f253c389808fe724b7cf8611051_edges.jpg,2.018292,0.0,edges,nipe10,2022-04-19_14h42.11.715,ratings,2022.1.1,Linux x86_64,74.97375918
1.264044944,3.355,0.992509363,7.2641,0,96,96,277,1,440_9bf7e8609729bf888835168834da6c3ff30b75d0d4f36e2ee6918bcc_bw.jpg,-2.284164,2.710028,blackwhite,nipe10,2022-04-19_14h42.11.715,ratings,2022.1.1,Linux x86_64,74.97375918
0.486891386,4.2985,0.608614232,5.4655,0,97,97,282,1,440_dc6413e2b65369ee2587f4d85621742fe4ca87392d0a8ad2ea7d94e3_orig.jpg,-3.016216,1.69404,original,nipe10,2022-04-19_14h42.11.715,ratings,2022.1.1,Linux x86_64,74.97375918
2.228464419,6.3024,1.694756554,8.1343,0,98,98,181,1,369_98db62a1bdabfd1bc551180da6658005b461585cd21614633cf76470_bw.jpg,2.190476,-0.03174604,blackwhite,nipe10,2022-04-19_14h42.11.715,ratings,2022.1.1,Linux x86_64,74.97375918
-2.443820225,6.9969,-2.453183521,8.3308,0,99,99,84,1,243_beddb302dcb21071d88c8d2cab07002050d36b3001ef28f89389fa56_orig.jpg,-0.3450656,-0.2070392,original,nipe10,2022-04-19_14h42.11.715,ratings,2022.1.1,Linux x86_64,74.97375918
-0.561797753,30.166,-0.786516854,35.552,0,100,100,378,1,640_0ddb4981a5f5842ed5b4f7ef941be53779189df5e718b1fc5475ad80_orig.jpg,2.571428,-1.873016,original,nipe10,2022-04-19_14h42.11.715,ratings,2022.1.1,Linux x86_64,74.97375918
-1.797752809,5.8642,-2.368913858,6.648,0,101,101,391,1,663_aaf52107fe3a86392530d88b34e86f9d2b6820714cad98d1e3c2cb67_bw.jpg,2.58766,0.0918696,blackwhite,nipe10,2022-04-19_14h42.11.715,ratings,2022.1.1,Linux x86_64,74.97375918
-3.895131086,6.1998,2.097378277,3.2496,0,102,102,119,1,332_4d584229bdae2e1782f77f0e953e528f13c3dfa79b4b94736c0310fa_circblurext.jpg,3.157348,0.483092,circularblurringext,nipe10,2022-04-19_14h42.11.715,ratings,2022.1.1,Linux x86_64,74.97375918
-2.191011236,7.05,1.029962547,7.666,0,103,103,400,1,683_a004ad18331da968da5debdd15e1447dd7748750af0bc6c57b844200_circblurint.jpg,-2.91956,2.466524,circularblurringint,nipe10,2022-04-19_14h42.11.715,ratings,2022.1.1,Linux x86_64,74.97375918
-1.582397004,8.1574,0.852059925,11.047,0,104,104,148,1,354_e46c3ec6fb00773f64f2bcd212385f253c389808fe724b7cf8611051_circblurint.jpg,2.018292,0.0,circularblurringint,nipe10,2022-04-19_14h42.11.715,ratings,2022.1.1,Linux x86_64,74.97375918
-1.676029963,5.2719,-1.245318352,7.0381,0,105,105,45,1,92_5d20d78a8e57e628c6930676473a4e0a485e715841efd6286c660020_blur.jpg,2.126984,0.0,blurring,nipe10,2022-04-19_14h42.11.715,ratings,2022.1.1,Linux x86_64,74.97375918
0.018726592,6.148,0.102996255,7.2304,0,106,106,33,1,60_ad52063167538de24f94d7dfd04808cb94cf8f426c40871d2f126505_blur.jpg,2.158732,0.0,blurring,nipe10,2022-04-19_14h42.11.715,ratings,2022.1.1,Linux x86_64,74.97375918
0.692883895,7.349,-1.245318352,9.7823,0,107,107,506,1,855_66d893451dfd1e7615132071c6c8a82b02dc2b37781cd89400883b26_edges.jpg,2.69484,0.2143624,edges,nipe10,2022-04-19_14h42.11.715,ratings,2022.1.1,Linux x86_64,74.97375918
-1.985018727,2.8148,1.076779026,6.3651,0,108,108,189,1,369_c99797771115d7627d4abe3415f814497288f91a7be1a04c17c776b9_blur.jpg,3.619824,-0.174216,blurring,nipe10,2022-04-19_14h42.11.715,ratings,2022.1.1,Linux x86_64,74.97375918
-2.209737828,3.2979,1.310861423,4.7814,0,109,109,203,1,380_34772591c787182a37724027eac6948ebc9d4064f6a601d23b923b8e_circblurext.jpg,2.222224,-0.063492,circularblurringext,nipe10,2022-04-19_14h42.11.715,ratings,2022.1.1,Linux x86_64,74.97375918
-3.043071161,1.8017,1.807116105,2.9853,0,110,110,563,1,1022_cf035e583d41a856836f8b0ae314ecbe79dffd9e40ef6a08cc26028f_circblurext.jpg,-0.2516452,3.05846,circularblurringext,nipe10,2022-04-19_14h42.11.715,ratings,2022.1.1,Linux x86_64,74.97375918
-2.228464419,4.0326,1.367041199,4.8662,0,111,111,351,1,498_305b74cdc4784d9d25e72724302e5402def70177ea31ae7e25fab66b_blur.jpg,3.04762,-0.444444,blurring,nipe10,2022-04-19_14h42.11.715,ratings,2022.1.1,Linux x86_64,74.97375918
-2.106741573,3.3839,-2.106741573,4.5697,0,112,112,414,1,692_7d7eaf20e6de8956f0fca7500ace97a8599aa8b605a7d690cdb28724_orig.jpg,-2.063492,-1.26984,original,nipe10,2022-04-19_14h42.11.715,ratings,2022.1.1,Linux x86_64,74.97375918
1.900749064,5.0626,-2.02247191,8.4297,0,113,113,178,1,368_6507b94d7d0199f14efd3706db30c9c44b96085f84e9cc7792e3e0ae_circblurint.jpg,1.959544,0.400336,circularblurringint,nipe10,2022-04-19_14h42.11.715,ratings,2022.1.1,Linux x86_64,74.97375918
-1.807116105,3.9491,1.132958801,7.3234,0,114,114,142,1,353_44e285740cb41818482ac93fc5fbd72c18029444a1d7506c9fc053e7_circblurint.jpg,-3.232676,-0.87108,circularblurringint,nipe10,2022-04-19_14h42.11.715,ratings,2022.1.1,Linux x86_64,74.97375918
-2.265917603,2.9988,1.161048689,6.8816,0,115,115,57,1,137_0e6a04243c0a42a5e2528a2d181255ca2a4b7bd6e7978c5c2059c69f_blur.jpg,-0.95238,2.095236,blurring,nipe10,2022-04-19_14h42.11.715,ratings,2022.1.1,Linux x86_64,74.97375918
-1.292134831,7.3396,0.786516854,10.0231,0,116,116,284,1,440_dc6413e2b65369ee2587f4d85621742fe4ca87392d0a8ad2ea7d94e3_edges.jpg,-3.016216,1.69404,edges,nipe10,2022-04-19_14h42.11.715,ratings,2022.1.1,Linux x86_64,74.97375918
-0.861423221,20.878,-1.619850187,16.2293,0,117,117,337,1,492_a1a4d288d3bc486c83c3b6a835c42891989f5ba781633932298a7676_bw.jpg,3.406892,-0.44522,blackwhite,nipe10,2022-04-19_14h42.11.715,ratings,2022.1.1,Linux x86_64,74.97375918
0.121722846,10.2455,-1.207865169,11.0455,0,118,118,540,1,1005_b980c0747d20935bc63cc27a9e05ce2ff5bae98f859872ec48edd7f5_orig.jpg,3.428572,-0.476192,original,nipe10,2022-04-19_14h42.11.715,ratings,2022.1.1,Linux x86_64,74.97375918
-1.338951311,1.8636,0.9082397,2.8471,0,119,119,290,1,442_7449d79dae5d652af9b2429872cabdef938646ba024db2f431b3b28d_edges.jpg,1.619048,0.126984,edges,nipe10,2022-04-19_14h42.11.715,ratings,2022.1.1,Linux x86_64,74.97375918
-2.5,1.8535,1.348314607,2.6659,0,120,120,389,1,646_577760d718dab44c6f04d77408c5644a120065ce07a9503957d0850a_circblurext.jpg,-2.690668,2.61324,circularblurringext,nipe10,2022-04-19_14h42.11.715,ratings,2022.1.1,Linux x86_64,74.97375918
-0.411985019,2.6985,-0.524344569,7.4864,0,121,121,224,1,403_57ac47f43882fc031a6067b1a388c0b2cbe8708dcbd2ff1019932eff_edges.jpg,-3.333332,-1.396824,edges,nipe10,2022-04-19_14h42.11.715,ratings,2022.1.1,Linux x86_64,74.97375918
-0.580524345,8.7442,-1.460674157,9.9025,0,122,122,104,1,284_cdcbd54fc995081ac95c8b2c37a19cebb341f61a8eb268cee1623492_edges.jpg,-1.015872,2.095236,edges,nipe10,2022-04-19_14h42.11.715,ratings,2022.1.1,Linux x86_64,74.97375918
1.694756554,5.4086,1.151685393,8.5155,0,123,123,48,1,112_b6a4ce721c2e42943d7d8b168751d74cd2f372b1cd4fed5a4404faec_orig.jpg,2.107036,0.505688,original,nipe10,2022-04-19_14h42.11.715,ratings,2022.1.1,Linux x86_64,74.97375918
-0.926966292,11.0829,0.402621723,12.2152,0,124,124,454,1,716_2ab64478147184c4df720a52cf621875addc9007cb2967e4a9a88909_circblurint.jpg,2.428484,0.0,circularblurringint,nipe10,2022-04-19_14h42.11.715,ratings,2022.1.1,Linux x86_64,74.97375918
-0.964419476,7.8672,-1.928838951,8.7824,0,125,125,308,1,455_34a7d8167619d110206c369e3f7dce8a3f99db763a9d8e2b956501d3_edges.jpg,-2.526412,-0.3827896,edges,nipe10,2022-04-19_14h42.11.715,ratings,2022.1.1,Linux x86_64,74.97375918
-0.599250936,5.3394,-1.039325843,6.3154,0,126,126,93,1,258_d26019382777d2159a974a7654923e71598135ce2cd710cea1f92865_blur.jpg,3.497684,-0.61104,blurring,nipe10,2022-04-19_14h42.11.715,ratings,2022.1.1,Linux x86_64,74.97375918
-1.310861423,3.1364,-1.760299625,4.6516,0,127,127,553,1,1014_a5c212ca979d482cf94c2db7697aba75620391a64b030ab7ad2bbecf_bw.jpg,-3.174604,-1.374372,blackwhite,nipe10,2022-04-19_14h42.11.715,ratings,2022.1.1,Linux x86_64,74.97375918
-2.602996255,3.1683,1.43258427,2.2705,0,128,128,314,1,459_46e25de472bb056cb470716d30937415f7344bfc4354d6eb710d8c9f_edges.jpg,0.03174604,0.0,edges,nipe10,2022-04-19_14h42.11.715,ratings,2022.1.1,Linux x86_64,74.97375918
-2.02247191,8.1329,-2.144194757,9.7817,0,129,129,331,1,482_a1cd28915c5044c018195ab0fff10dcc95e385246b045a7cd4463ff7_bw.jpg,-3.361852,-1.555612,blackwhite,nipe10,2022-04-19_14h42.11.715,ratings,2022.1.1,Linux x86_64,74.97375918
0.009363296,41.3977,-1.451310861,40.1506,0,130,130,110,1,293_3dfdfafc0c6a54b2da7453750ac281f7718c0b3337b0a74c4563d6bd_edges.jpg,-2.574524,2.632596,edges,nipe10,2022-04-19_14h42.11.715,ratings,2022.1.1,Linux x86_64,74.97375918
-1.38576779,6.3787,-1.348314607,7.6932,0,131,131,208,1,381_5935a9f9796adce2f1539af6c75bcdc0c80d847a2ce9b77cf59b7672_circblurint.jpg,-1.327432,-0.442476,circularblurringint,nipe10,2022-04-19_14h42.11.715,ratings,2022.1.1,Linux x86_64,74.97375918
1.029962547,1.6654,1.657303371,11.7514,0,132,132,198,1,380_34772591c787182a37724027eac6948ebc9d4064f6a601d23b923b8e_orig.jpg,2.222224,-0.063492,original,nipe10,2022-04-19_14h42.11.715,ratings,2022.1.1,Linux x86_64,74.97375918
1.142322097,2.7763,1.264044944,3.6922,0,133,133,49,1,112_b6a4ce721c2e42943d7d8b168751d74cd2f372b1cd4fed5a4404faec_bw.jpg,2.107036,0.505688,blackwhite,nipe10,2022-04-19_14h42.11.715,ratings,2022.1.1,Linux x86_64,74.97375918
-1.526217228,31.8989,0.674157303,27.6648,0,134,134,459,1,720_483c541c48959a597fcf44320941afaf8b7695105f90d65b5f6b30f2_blur.jpg,2.158732,-0.2539684,blurring,nipe10,2022-04-19_14h42.11.715,ratings,2022.1.1,Linux x86_64,74.97375918
-1.376404494,6.4573,-1.292134831,9.2167,0,135,135,80,1,242_85283f6935a89812ab229dcad9ba184529c9242ac3106d768ecf3ab3_edges.jpg,2.14918,-0.2949852,edges,nipe10,2022-04-19_14h42.11.715,ratings,2022.1.1,Linux x86_64,74.97375918
-1.451310861,6.5011,-1.947565543,7.3833,0,136,136,336,1,492_a1a4d288d3bc486c83c3b6a835c42891989f5ba781633932298a7676_orig.jpg,3.406892,-0.44522,original,nipe10,2022-04-19_14h42.11.715,ratings,2022.1.1,Linux x86_64,74.97375918
-2.81835206,4.0927,1.5917603,2.3095,0,137,137,41,1,82_43f4d5aec7c2e5bd495473f6708a0f2d47c9fe34e1fe9436646cb036_circblurext.jpg,2.022756,0.505688,circularblurringext,nipe10,2022-04-19_14h42.11.715,ratings,2022.1.1,Linux x86_64,74.97375918
0.786516854,10.8636,0.664794007,6.1969,0,138,138,456,1,720_483c541c48959a597fcf44320941afaf8b7695105f90d65b5f6b30f2_orig.jpg,2.158732,-0.2539684,original,nipe10,2022-04-19_14h42.11.715,ratings,2022.1.1,Linux x86_64,74.97375918
0.252808989,5.8519,0.674157303,7.1834,0,139,139,527,1,877_cab3efed0c9ff4552037df6c1ea4ea9713f915c94592a14dbf2799da_circblurext.jpg,3.174604,0.3174604,circularblurringext,nipe10,2022-04-19_14h42.11.715,ratings,2022.1.1,Linux x86_64,74.97375918
-2.059925094,6.5991,1.320224719,5.5161,0,140,140,425,1,692_e3e3bf88684fbbcdb9849a4147f9e2fcd39b0f083554a829aca4e9fa_circblurext.jpg,-0.44522,3.135888,circularblurringext,nipe10,2022-04-19_14h42.11.715,ratings,2022.1.1,Linux x86_64,74.97375918
-1.058052434,6.8177,-1.797752809,11.8721,0,141,141,247,1,414_0187bdf7007109b487865b6a9d388997a6817acf052a6a7cdd5b39d9_bw.jpg,-2.786708,-1.133056,blackwhite,nipe10,2022-04-19_14h42.11.715,ratings,2022.1.1,Linux x86_64,74.97375918
-1.282771536,14.94,-1.479400749,18.1991,0,142,142,270,1,434_ba36d91204d7e578001f6a545d7501e65d209554def5a3c8b7583825_orig.jpg,-3.523808,1.428572,original,nipe10,2022-04-19_14h42.11.715,ratings,2022.1.1,Linux x86_64,74.97375918
-2.902621723,2.5718,1.900749064,4.1265,0,143,143,447,1,709_69c01dcde028a2a1a913f1a2a5026ae1748484f75c89217a040c6791_blur.jpg,1.432444,-0.01935732,blurring,nipe10,2022-04-19_14h42.11.715,ratings,2022.1.1,Linux x86_64,74.97375918
-1.985018727,1.9825,1.161048689,2.634,0,144,144,262,1,416_8a1f874e0057d67a4e6955865ba88b2d8ce2c8b4469589307687a723_circblurint.jpg,-1.753336,3.088264,circularblurringint,nipe10,2022-04-19_14h42.11.715,ratings,2022.1.1,Linux x86_64,74.97375918
0.533707865,1.8205,1.235955056,3.9045,0,145,145,32,1,60_ad52063167538de24f94d7dfd04808cb94cf8f426c40871d2f126505_edges.jpg,2.158732,0.0,edges,nipe10,2022-04-19_14h42.11.715,ratings,2022.1.1,Linux x86_64,74.97375918
1.095505618,2.2161,-2.134831461,4.2326,0,146,146,6,1,28_6318543b74eeb646a1735477ebc023fdc9ac3849bc0db1957c272a26_orig.jpg,2.811244,-0.74584,original,nipe10,2022-04-19_14h42.11.715,ratings,2022.1.1,Linux x86_64,74.97375918
-1.507490637,3.5006,1.441947566,4.8958,0,147,147,27,1,59_8568373b727f29d67ba6ce4c360dd918c8b08b13495fca56bdda5e82_blur.jpg,2.064896,0.505688,blurring,nipe10,2022-04-19_14h42.11.715,ratings,2022.1.1,Linux x86_64,74.97375918
-2.031835206,6.5068,1.367041199,10.4397,0,148,148,496,1,824_b1d91cc824ce0d3d383d3147da88d3d6dbaf6be918bab79e3ec8f501_circblurint.jpg,-3.645176,-1.432784,circularblurringint,nipe10,2022-04-19_14h42.11.715,ratings,2022.1.1,Linux x86_64,74.97375918
-2.228464419,1.4321,1.788389513,4.7492,0,149,149,219,1,396_208259ea431d47bb7f3946213eb099834eb119756ce304ad473d4d9f_blur.jpg,2.857144,-0.3809524,blurring,nipe10,2022-04-19_14h42.11.715,ratings,2022.1.1,Linux x86_64,74.97375918
-1.844569288,2.1657,-2.378277154,4.5154,0,150,150,529,1,915_dc9fd40a3b5d64a180833a7bac86e7556c24f681f473fe255e41f936_bw.jpg,-3.09294,-0.918696,blackwhite,nipe10,2022-04-19_14h42.11.715,ratings,2022.1.1,Linux x86_64,74.97375918
-2.294007491,1.6563,1.629213483,3.2564,0,151,151,285,1,440_dc6413e2b65369ee2587f4d85621742fe4ca87392d0a8ad2ea7d94e3_blur.jpg,-3.016216,1.69404,blurring,nipe10,2022-04-19_14h42.11.715,ratings,2022.1.1,Linux x86_64,74.97375918
-1.245318352,92.0255,1.086142322,93.1696,0,152,152,586,1,1225_59c67a821456f2cce3e5acf66d7f00076bd02caffc984c1eb0df794e_circblurint.jpg,-0.444444,3.809524,circularblurringint,nipe10,2022-04-19_14h42.11.715,ratings,2022.1.1,Linux x86_64,74.97375918
-2.425093633,1.5757,1.779026217,2.3408,0,153,153,539,1,986_a77edb21e78bc3a6aa7406517824596b3496ad6c657b6befb84cf370_circblurext.jpg,-3.906316,-0.60496,circularblurringext,nipe10,2022-04-19_14h42.11.715,ratings,2022.1.1,Linux x86_64,74.97375918
-1.919475655,7.6707,1.479400749,8.799,0,154,154,318,1,460_e06b3af7ff2f2bfb5f9b6e3d5dc25b9aaa40b84823fac8fd934621bd_orig.jpg,-3.430992,-1.607468,original,nipe10,2022-04-19_14h42.11.715,ratings,2022.1.1,Linux x86_64,74.97375918
-1.779026217,3.2598,1.198501873,5.3132,0,155,155,468,1,741_2b218fb015e3da83db73cacdb52e61e0c2534c1fe255bb1c5c74d47f_orig.jpg,3.140096,0.448584,original,nipe10,2022-04-19_14h42.11.715,ratings,2022.1.1,Linux x86_64,74.97375918
-0.767790262,20.5128,0.842696629,22.7633,0,156,156,312,1,459_46e25de472bb056cb470716d30937415f7344bfc4354d6eb710d8c9f_orig.jpg,0.03174604,0.0,original,nipe10,2022-04-19_14h42.11.715,ratings,2022.1.1,Linux x86_64,74.97375918
1.301498127,4.0311,1.142322097,3.2323,0,157,157,568,1,1037_e2eb929a6de79a63ce6cfe5321fcb74a203b134e4094932d90b01d99_circblurint.jpg,2.651956,0.0,circularblurringint,nipe10,2022-04-19_14h42.11.715,ratings,2022.1.1,Linux x86_64,74.97375918
0.608614232,2.8827,0.786516854,4.0495,0,158,158,343,1,494_5c6c3b85a2734a43c24bfe337d42ffcc82b7347227804d01c784cef4_bw.jpg,0.03871468,0.0,blackwhite,nipe10,2022-04-19_14h42.11.715,ratings,2022.1.1,Linux x86_64,74.97375918
2.097378277,10.5684,0.880149813,6.5833,0,159,159,67,1,172_c641c6c56ca6b594b773084e1363c852abdb65f988d7ff802ee503f2_bw.jpg,0.379572,0.01725328,blackwhite,nipe10,2022-04-19_14h42.11.715,ratings,2022.1.1,Linux x86_64,74.97375918
-1.844569288,1.5333,0.973782772,2.6272,0,160,160,350,1,498_305b74cdc4784d9d25e72724302e5402def70177ea31ae7e25fab66b_edges.jpg,3.04762,-0.444444,edges,nipe10,2022-04-19_14h42.11.715,ratings,2022.1.1,Linux x86_64,74.97375918
-2.574906367,2.8981,1.713483146,3.5465,0,161,161,562,1,1022_cf035e583d41a856836f8b0ae314ecbe79dffd9e40ef6a08cc26028f_circblurint.jpg,-0.2516452,3.05846,circularblurringint,nipe10,2022-04-19_14h42.11.715,ratings,2022.1.1,Linux x86_64,74.97375918
-1.882022472,1.5663,-1.947565543,2.4043,0,162,162,330,1,482_a1cd28915c5044c018195ab0fff10dcc95e385246b045a7cd4463ff7_orig.jpg,-3.361852,-1.555612,original,nipe10,2022-04-19_14h42.11.715,ratings,2022.1.1,Linux x86_64,74.97375918
-2.612359551,1.8916,1.638576779,2.508,0,163,163,525,1,877_cab3efed0c9ff4552037df6c1ea4ea9713f915c94592a14dbf2799da_blur.jpg,3.174604,0.3174604,blurring,nipe10,2022-04-19_14h42.11.715,ratings,2022.1.1,Linux x86_64,74.97375918
-1.395131086,3.4558,0.842696629,5.7998,0,164,164,452,1,716_2ab64478147184c4df720a52cf621875addc9007cb2967e4a9a88909_edges.jpg,2.428484,0.0,edges,nipe10,2022-04-19_14h42.11.715,ratings,2022.1.1,Linux x86_64,74.97375918
-0.43071161,4.4584,-0.814606742,8.7904,0,165,165,317,1,459_46e25de472bb056cb470716d30937415f7344bfc4354d6eb710d8c9f_circblurext.jpg,0.03174604,0.0,circularblurringext,nipe10,2022-04-19_14h42.11.715,ratings,2022.1.1,Linux x86_64,74.97375918
-2.237827715,1.6469,1.872659176,2.8132,0,166,166,532,1,915_dc9fd40a3b5d64a180833a7bac86e7556c24f681f473fe255e41f936_circblurint.jpg,-3.09294,-0.918696,circularblurringint,nipe10,2022-04-19_14h42.11.715,ratings,2022.1.1,Linux x86_64,74.97375918
-2.949438202,5.8526,-2.209737828,7.2035,0,167,167,162,1,361_b5541309527dc3c2422f45a95ebb0ed32005e6fe10d0489a1ff1fbdc_orig.jpg,-3.987612,-0.2516452,original,nipe10,2022-04-19_14h42.11.715,ratings,2022.1.1,Linux x86_64,74.97375918
0.524344569,10.6203,0.093632959,13.913,0,168,168,300,1,453_54f106fd1d4b65fa4aa347407127fc30d49f791e81aee3a0bbe44489_orig.jpg,2.222224,0.0,original,nipe10,2022-04-19_14h42.11.715,ratings,2022.1.1,Linux x86_64,74.97375918
-2.940074906,1.3991,1.760299625,2.6483,0,169,169,147,1,354_e46c3ec6fb00773f64f2bcd212385f253c389808fe724b7cf8611051_blur.jpg,2.018292,0.0,blurring,nipe10,2022-04-19_14h42.11.715,ratings,2022.1.1,Linux x86_64,74.97375918
-0.945692884,2.9318,0.308988764,5.9139,0,170,170,412,1,687_e3b018945792a574962235c88c553b7c318c75eec2596478e8a7b877_circblurint.jpg,3.63918,-0.42586,circularblurringint,nipe10,2022-04-19_14h42.11.715,ratings,2022.1.1,Linux x86_64,74.97375918
-1.807116105,27.251,1.039325843,28.5001,0,171,171,59,1,137_0e6a04243c0a42a5e2528a2d181255ca2a4b7bd6e7978c5c2059c69f_circblurext.jpg,-0.95238,2.095236,circularblurringext,nipe10,2022-04-19_14h42.11.715,ratings,2022.1.1,Linux x86_64,74.97375918
-1.769662921,3.6927,0.58988764,6.4598,0,172,172,340,1,492_a1a4d288d3bc486c83c3b6a835c42891989f5ba781633932298a7676_circblurint.jpg,3.406892,-0.44522,circularblurringint,nipe10,2022-04-19_14h42.11.715,ratings,2022.1.1,Linux x86_64,74.97375918
-2.153558052,1.6153,1.348314607,2.3651,0,173,173,500,1,854_081a8409e4d6d10923b2dedcc16a3fca405fcd602e55a20d84cac69d_edges.jpg,3.088264,1.21538,edges,nipe10,2022-04-19_14h42.11.715,ratings,2022.1.1,Linux x86_64,74.97375918
0.983146067,11.95,-1.657303371,9.5989,0,174,174,546,1,1010_06d15f44b979c086561137000ec070ba4cd479856f92840a7850b2bf_orig.jpg,0.189786,-0.189786,original,nipe10,2022-04-19_14h42.11.715,ratings,2022.1.1,Linux x86_64,74.97375918
-1.760299625,1.8002,1.161048689,3.1827,0,175,175,230,1,407_578d31d32e806706dde2563213f130b90e621abfed0e47ecabd85d27_edges.jpg,3.5873,-0.444444,edges,nipe10,2022-04-19_14h42.11.715,ratings,2022.1.1,Linux x86_64,74.97375918
-1.900749064,6.4536,1.151685393,7.0529,0,176,176,159,1,358_157f8ac929713531a15b1ecf115e7b659cb90e83d675251e368d165f_blur.jpg,-3.777776,-0.571428,blurring,nipe10,2022-04-19_14h42.11.715,ratings,2022.1.1,Linux x86_64,74.97375918
-2.013108614,2.7825,1.732209738,4.2326,0,177,177,89,1,243_beddb302dcb21071d88c8d2cab07002050d36b3001ef28f89389fa56_circblurext.jpg,-0.3450656,-0.2070392,circularblurringext,nipe10,2022-04-19_14h42.11.715,ratings,2022.1.1,Linux x86_64,74.97375918
0.458801498,2.3671,-1.573033708,3.6007,0,178,178,560,1,1022_cf035e583d41a856836f8b0ae314ecbe79dffd9e40ef6a08cc26028f_edges.jpg,-0.2516452,3.05846,edges,nipe10,2022-04-19_14h42.11.715,ratings,2022.1.1,Linux x86_64,74.97375918
1.039325843,6.4414,0.215355805,11.4914,0,179,179,40,1,82_43f4d5aec7c2e5bd495473f6708a0f2d47c9fe34e1fe9436646cb036_circblurint.jpg,2.022756,0.505688,circularblurringint,nipe10,2022-04-19_14h42.11.715,ratings,2022.1.1,Linux x86_64,74.97375918
0.486891386,3.9255,0.880149813,9.6051,0,180,180,429,1,694_7a14b8ab7c564dcb0f628c4de7f6cb54e4c5f6601f774bf167641c37_blur.jpg,1.819588,0.116144,blurring,nipe10,2022-04-19_14h42.11.715,ratings,2022.1.1,Linux x86_64,74.97375918
0.739700375,5.1823,-1.507490637,10.5833,0,181,181,101,1,267_792043debad81ce271cec5b3c3bd9d264efc13f362bec9c7a3f72fe7_circblurext.jpg,1.980616,0.2107036,circularblurringext,nipe10,2022-04-19_14h42.11.715,ratings,2022.1.1,Linux x86_64,74.97375918
1.423220974,2.9193,1.310861423,10.4373,0,182,182,474,1,748_e519892faa7c772a0afaf9eeff36cf0e411574027ab3d9aa4947a048_orig.jpg,-1.813112,3.307432,original,nipe10,2022-04-19_14h42.11.715,ratings,2022.1.1,Linux x86_64,74.97375918
-2.088014981,147.003,-2.200374532,146.2825,0,183,183,205,1,381_5935a9f9796adce2f1539af6c75bcdc0c80d847a2ce9b77cf59b7672_bw.jpg,-1.327432,-0.442476,blackwhite,nipe10,2022-04-19_14h42.11.715,ratings,2022.1.1,Linux x86_64,74.97375918
-2.612359551,1.5673,0.767790262,4.6313,0,184,184,507,1,855_66d893451dfd1e7615132071c6c8a82b02dc2b37781cd89400883b26_blur.jpg,2.69484,0.2143624,blurring,nipe10,2022-04-19_14h42.11.715,ratings,2022.1.1,Linux x86_64,74.97375918
-2.162921348,2.4993,1.329588015,3.158,0,185,185,190,1,369_c99797771115d7627d4abe3415f814497288f91a7be1a04c17c776b9_circblurint.jpg,3.619824,-0.174216,circularblurringint,nipe10,2022-04-19_14h42.11.715,ratings,2022.1.1,Linux x86_64,74.97375918
-1.367041199,4.3326,-1.919475655,5.1321,0,186,186,134,1,349_8809a67686d34844c915d7700e2ea72ad1c02ae232ae0d3cc0e458d4_edges.jpg,-3.619048,-0.2857144,edges,nipe10,2022-04-19_14h42.11.715,ratings,2022.1.1,Linux x86_64,74.97375918
-0.374531835,21.2862,-0.411985019,25.0703,0,187,187,554,1,1014_a5c212ca979d482cf94c2db7697aba75620391a64b030ab7ad2bbecf_edges.jpg,-3.174604,-1.374372,edges,nipe10,2022-04-19_14h42.11.715,ratings,2022.1.1,Linux x86_64,74.97375918
-1.685393258,1.9045,1.282771536,4.7768,0,188,188,2,1,13_771f4fcf0a212d25d6a78565e7f34cc5ddd823e7afbdc77ef063326e_edges.jpg,2.190476,0.0,edges,nipe10,2022-04-19_14h42.11.715,ratings,2022.1.1,Linux x86_64,74.97375918
-2.144194757,2.2488,0.9082397,3.135,0,189,189,494,1,824_b1d91cc824ce0d3d383d3147da88d3d6dbaf6be918bab79e3ec8f501_edges.jpg,-3.645176,-1.432784,edges,nipe10,2022-04-19_14h42.11.715,ratings,2022.1.1,Linux x86_64,74.97375918
0.543071161,2.8988,0.814606742,3.8976,0,190,190,199,1,380_34772591c787182a37724027eac6948ebc9d4064f6a601d23b923b8e_bw.jpg,2.222224,-0.063492,blackwhite,nipe10,2022-04-19_14h42.11.715,ratings,2022.1.1,Linux x86_64,74.97375918
-2.209737828,1.8166,-2.228464419,2.4825,0,191,191,533,1,915_dc9fd40a3b5d64a180833a7bac86e7556c24f681f473fe255e41f936_circblurext.jpg,-3.09294,-0.918696,circularblurringext,nipe10,2022-04-19_14h42.11.715,ratings,2022.1.1,Linux x86_64,74.97375918
-1.760299625,7.2901,0.580524345,4.833,0,192,192,397,1,683_a004ad18331da968da5debdd15e1447dd7748750af0bc6c57b844200_bw.jpg,-2.91956,2.466524,blackwhite,nipe10,2022-04-19_14h42.11.715,ratings,2022.1.1,Linux x86_64,74.97375918
-2.322097378,4.2658,-1.732209738,5.9654,0,193,193,137,1,349_8809a67686d34844c915d7700e2ea72ad1c02ae232ae0d3cc0e458d4_circblurext.jpg,-3.619048,-0.2857144,circularblurringext,nipe10,2022-04-19_14h42.11.715,ratings,2022.1.1,Linux x86_64,74.97375918
-1.039325843,2.2373,0.833333333,3.5535,0,194,194,39,1,82_43f4d5aec7c2e5bd495473f6708a0f2d47c9fe34e1fe9436646cb036_blur.jpg,2.022756,0.505688,blurring,nipe10,2022-04-19_14h42.11.715,ratings,2022.1.1,Linux x86_64,74.97375918
-0.786516854,5.533,-0.421348315,7.0995,0,195,195,158,1,358_157f8ac929713531a15b1ecf115e7b659cb90e83d675251e368d165f_edges.jpg,-3.777776,-0.571428,edges,nipe10,2022-04-19_14h42.11.715,ratings,2022.1.1,Linux x86_64,74.97375918
-0.468164794,8.1673,-0.674157303,11.4387,0,196,196,98,1,267_792043debad81ce271cec5b3c3bd9d264efc13f362bec9c7a3f72fe7_edges.jpg,1.980616,0.2107036,edges,nipe10,2022-04-19_14h42.11.715,ratings,2022.1.1,Linux x86_64,74.97375918
-1.151685393,12.0034,-0.964419476,15.1862,0,197,197,9,1,28_6318543b74eeb646a1735477ebc023fdc9ac3849bc0db1957c272a26_blur.jpg,2.811244,-0.74584,blurring,nipe10,2022-04-19_14h42.11.715,ratings,2022.1.1,Linux x86_64,74.97375918
-1.966292135,1.8544,-1.535580524,3.6207,0,198,198,579,1,1061_665178b9cb0bc869cc2e2b68def4838db04e66f9531098fb75875a09_blur.jpg,0.3492064,-0.3174604,blurring,nipe10,2022-04-19_14h42.11.715,ratings,2022.1.1,Linux x86_64,74.97375918
-1.919475655,1.5475,-1.91011236,3.8971,0,199,199,165,1,361_b5541309527dc3c2422f45a95ebb0ed32005e6fe10d0489a1ff1fbdc_blur.jpg,-3.987612,-0.2516452,blurring,nipe10,2022-04-19_14h42.11.715,ratings,2022.1.1,Linux x86_64,74.97375918
-1.741573034,8.8489,-2.191011236,9.6834,0,200,200,1,1,13_771f4fcf0a212d25d6a78565e7f34cc5ddd823e7afbdc77ef063326e_bw.jpg,2.190476,0.0,blackwhite,nipe10,2022-04-19_14h42.11.715,ratings,2022.1.1,Linux x86_64,74.97375918
-1.928838951,5.3322,0.580524345,7.042,0,201,201,232,1,407_578d31d32e806706dde2563213f130b90e621abfed0e47ecabd85d27_circblurint.jpg,3.5873,-0.444444,circularblurringint,nipe10,2022-04-19_14h42.11.715,ratings,2022.1.1,Linux x86_64,74.97375918
-2.97752809,3.2414,0.393258427,6.325,0,202,202,327,1,468_8b69b13120daebadd8a4a3166e1419f2404395cba231307a4efa9fde_blur.jpg,2.031744,0.2539684,blurring,nipe10,2022-04-19_14h42.11.715,ratings,2022.1.1,Linux x86_64,74.97375918
0.945692884,11.0508,0.58988764,8.3986,0,203,203,77,1,236_f645730e1eb06155418c9a571329cc7fa320654fcaaedf1048b5cc11_circblurext.jpg,2.253968,0.0,circularblurringext,nipe10,2022-04-19_14h42.11.715,ratings,2022.1.1,Linux x86_64,74.97375918
-2.471910112,17.3326,1.666666667,19.4489,0,204,204,588,1,1228_557412d34d6a70b7c5d222e030aa485b351a4574e8ba1a3112d1d13d_orig.jpg,2.137444,0.703464,original,nipe10,2022-04-19_14h42.11.715,ratings,2022.1.1,Linux x86_64,74.97375918
-1.123595506,10.414,0.571161049,7.9198,0,205,205,404,1,686_6745b57686ad5d1bd6cf3e7ed5bc0243a154f8939e88e30321dfcfdb_edges.jpg,-1.523808,3.650792,edges,nipe10,2022-04-19_14h42.11.715,ratings,2022.1.1,Linux x86_64,74.97375918
-1.938202247,3.765,1.535580524,4.4653,0,206,206,521,1,860_05c4e22518a30d3d2add458a8fc6488f87b9b02dd8e385ded939f025_circblurext.jpg,1.955092,0.3097172,circularblurringext,nipe10,2022-04-19_14h42.11.715,ratings,2022.1.1,Linux x86_64,74.97375918
-1.75093633,28.7007,-1.666666667,29.5171,0,207,207,598,1,1239_cee00457f4cfb76a407b12fd5ad714d440a4614c1e5467ee16caf618_circblurint.jpg,-0.03174604,0.190476,circularblurringint,nipe10,2022-04-19_14h42.11.715,ratings,2022.1.1,Linux x86_64,74.97375918
-2.013108614,1.2825,1.535580524,3.6195,0,208,208,100,1,267_792043debad81ce271cec5b3c3bd9d264efc13f362bec9c7a3f72fe7_circblurint.jpg,1.980616,0.2107036,circularblurringint,nipe10,2022-04-19_14h42.11.715,ratings,2022.1.1,Linux x86_64,74.97375918
-0.421348315,4.7836,-0.543071161,5.6336,0,209,209,576,1,1061_665178b9cb0bc869cc2e2b68def4838db04e66f9531098fb75875a09_orig.jpg,0.3492064,-0.3174604,original,nipe10,2022-04-19_14h42.11.715,ratings,2022.1.1,Linux x86_64,74.97375918
-2.443820225,3.5731,1.22659176,4.4657,0,210,210,393,1,663_aaf52107fe3a86392530d88b34e86f9d2b6820714cad98d1e3c2cb67_blur.jpg,2.58766,0.0918696,blurring,nipe10,2022-04-19_14h42.11.715,ratings,2022.1.1,Linux x86_64,74.97375918
-3.071161049,1.5998,2.631086142,2.2675,0,211,211,402,1,686_6745b57686ad5d1bd6cf3e7ed5bc0243a154f8939e88e30321dfcfdb_orig.jpg,-1.523808,3.650792,original,nipe10,2022-04-19_14h42.11.715,ratings,2022.1.1,Linux x86_64,74.97375918
-1.638576779,10.2501,0.889513109,11.6989,0,212,212,200,1,380_34772591c787182a37724027eac6948ebc9d4064f6a601d23b923b8e_edges.jpg,2.222224,-0.063492,edges,nipe10,2022-04-19_14h42.11.715,ratings,2022.1.1,Linux x86_64,74.97375918
-1.685393258,2.1914,-2.34082397,3.1343,0,213,213,362,1,508_a7a9519cdc7aad6844030f4e6cd96cffd1b9c49b71e20ea52789bda2_edges.jpg,-3.000388,-1.29694,edges,nipe10,2022-04-19_14h42.11.715,ratings,2022.1.1,Linux x86_64,74.97375918
-1.985018727,4.0904,-1.91011236,5.7417,0,214,214,571,1,1039_d64da8480fc6e94dcdc513237d600570ae0b9fe48795ac6a8b2d29a7_bw.jpg,-2.507936,-1.142856,blackwhite,nipe10,2022-04-19_14h42.11.715,ratings,2022.1.1,Linux x86_64,74.97375918
-1.676029963,2.2332,1.573033708,4.0846,0,215,215,266,1,431_ab5a1dbbe9292ac7f74e276cdabcd372e2c1f852ff34bf7cc6646ef8_edges.jpg,3.102584,0.354334,edges,nipe10,2022-04-19_14h42.11.715,ratings,2022.1.1,Linux x86_64,74.97375918
-2.153558052,31.1205,1.413857678,36.5352,0,216,216,122,1,347_27f0e47c2722605b950ccf9fa900f78271e4c3c874064ab5dacac160_edges.jpg,1.838948,0.3097172,edges,nipe10,2022-04-19_14h42.11.715,ratings,2022.1.1,Linux x86_64,74.97375918
-2.602996255,4.0491,-1.966292135,3.1138,0,217,217,130,1,349_18d92ef5c21ca70a3dd237aad251594e1688bbe01d8cff37b89c46b8_circblurint.jpg,-2.74874,-1.258228,circularblurringint,nipe10,2022-04-19_14h42.11.715,ratings,2022.1.1,Linux x86_64,74.97375918
0.730337079,2.3464,1.516853933,5.4705,0,218,218,75,1,236_f645730e1eb06155418c9a571329cc7fa320654fcaaedf1048b5cc11_blur.jpg,2.253968,0.0,blurring,nipe10,2022-04-19_14h42.11.715,ratings,2022.1.1,Linux x86_64,74.97375918
-2.471910112,1.382,1.610486891,2.1324,0,219,219,81,1,242_85283f6935a89812ab229dcad9ba184529c9242ac3106d768ecf3ab3_blur.jpg,2.14918,-0.2949852,blurring,nipe10,2022-04-19_14h42.11.715,ratings,2022.1.1,Linux x86_64,74.97375918
-2.808988764,1.1977,1.816479401,1.848,0,220,220,423,1,692_e3e3bf88684fbbcdb9849a4147f9e2fcd39b0f083554a829aca4e9fa_blur.jpg,-0.44522,3.135888,blurring,nipe10,2022-04-19_14h42.11.715,ratings,2022.1.1,Linux x86_64,74.97375918
-2.481273408,2.0674,1.760299625,2.7419,0,221,221,322,1,460_e06b3af7ff2f2bfb5f9b6e3d5dc25b9aaa40b84823fac8fd934621bd_circblurint.jpg,-3.430992,-1.607468,circularblurringint,nipe10,2022-04-19_14h42.11.715,ratings,2022.1.1,Linux x86_64,74.97375918
-2.528089888,1.1828,-2.265917603,2.1834,0,222,222,207,1,381_5935a9f9796adce2f1539af6c75bcdc0c80d847a2ce9b77cf59b7672_blur.jpg,-1.327432,-0.442476,blurring,nipe10,2022-04-19_14h42.11.715,ratings,2022.1.1,Linux x86_64,74.97375918
-1.582397004,3.522,-1.479400749,8.4056,0,223,223,214,1,394_8e3a0cb945144d53bd1ace04b6256237ed9dcbbd9cb83f8a4886b0e6_circblurint.jpg,-2.593884,2.651956,circularblurringint,nipe10,2022-04-19_14h42.11.715,ratings,2022.1.1,Linux x86_64,74.97375918
-2.003745318,4.6844,-1.816479401,5.8108,0,224,224,310,1,455_34a7d8167619d110206c369e3f7dce8a3f99db763a9d8e2b956501d3_circblurint.jpg,-2.526412,-0.3827896,circularblurringint,nipe10,2022-04-19_14h42.11.715,ratings,2022.1.1,Linux x86_64,74.97375918
-1.722846442,3.9839,0.674157303,5.9941,0,225,225,280,1,440_9bf7e8609729bf888835168834da6c3ff30b75d0d4f36e2ee6918bcc_circblurint.jpg,-2.284164,2.710028,circularblurringint,nipe10,2022-04-19_14h42.11.715,ratings,2022.1.1,Linux x86_64,74.97375918
1.582397004,14.6624,0.187265918,15.3293,0,226,226,516,1,860_05c4e22518a30d3d2add458a8fc6488f87b9b02dd8e385ded939f025_orig.jpg,1.955092,0.3097172,original,nipe10,2022-04-19_14h42.11.715,ratings,2022.1.1,Linux x86_64,74.97375918
1.264044944,6.7488,1.292134831,9.1566,0,227,227,370,1,616_05a637f5281666f53d4e2ef69351485fc21d629b37ee2006b2076eb6_circblurint.jpg,-2.380952,-0.832364,circularblurringint,nipe10,2022-04-19_14h42.11.715,ratings,2022.1.1,Linux x86_64,74.97375918
-2.668539326,1.6732,1.470037453,2.3064,0,228,228,311,1,455_34a7d8167619d110206c369e3f7dce8a3f99db763a9d8e2b956501d3_circblurext.jpg,-2.526412,-0.3827896,circularblurringext,nipe10,2022-04-19_14h42.11.715,ratings,2022.1.1,Linux x86_64,74.97375918
0.580524345,3.6848,0.74906367,4.6678,0,229,229,520,1,860_05c4e22518a30d3d2add458a8fc6488f87b9b02dd8e385ded939f025_circblurint.jpg,1.955092,0.3097172,circularblurringint,nipe10,2022-04-19_14h42.11.715,ratings,2022.1.1,Linux x86_64,74.97375918
-1.27340824,4.3487,-1.095505618,7.4765,0,230,230,511,1,858_2f6539ee36aba48c38dc716d4f7c3ae93367d6ddf23ab41745d4172c_bw.jpg,0.0623832,0.176752,blackwhite,nipe10,2022-04-19_14h42.11.715,ratings,2022.1.1,Linux x86_64,74.97375918
-1.900749064,1.9274,1.086142322,3.3615,0,231,231,279,1,440_9bf7e8609729bf888835168834da6c3ff30b75d0d4f36e2ee6918bcc_blur.jpg,-2.284164,2.710028,blurring,nipe10,2022-04-19_14h42.11.715,ratings,2022.1.1,Linux x86_64,74.97375918
-1.928838951,1.4652,1.38576779,2.0317,0,232,232,471,1,741_2b218fb015e3da83db73cacdb52e61e0c2534c1fe255bb1c5c74d47f_blur.jpg,3.140096,0.448584,blurring,nipe10,2022-04-19_14h42.11.715,ratings,2022.1.1,Linux x86_64,74.97375918
0.299625468,16.0997,0.571161049,12.7161,0,233,233,155,1,355_00a76f54934d36566dd0e7b091b8aa6a56d8e6b32d349aa578a10b45_circblurext.jpg,2.910052,0.3439152,circularblurringext,nipe10,2022-04-19_14h42.11.715,ratings,2022.1.1,Linux x86_64,74.97375918
-2.584269663,25.1406,1.357677903,31.3404,0,234,234,589,1,1228_557412d34d6a70b7c5d222e030aa485b351a4574e8ba1a3112d1d13d_bw.jpg,2.137444,0.703464,blackwhite,nipe10,2022-04-19_14h42.11.715,ratings,2022.1.1,Linux x86_64,74.97375918
-1.320224719,9.6526,1.376404494,10.5121,0,235,235,111,1,293_3dfdfafc0c6a54b2da7453750ac281f7718c0b3337b0a74c4563d6bd_blur.jpg,-2.574524,2.632596,blurring,nipe10,2022-04-19_14h42.11.715,ratings,2022.1.1,Linux x86_64,74.97375918
-1.685393258,14.7112,-2.462546816,17.6445,0,236,236,43,1,92_5d20d78a8e57e628c6930676473a4e0a485e715841efd6286c660020_bw.jpg,2.126984,0.0,blackwhite,nipe10,2022-04-19_14h42.11.715,ratings,2022.1.1,Linux x86_64,74.97375918
0.823970037,3.2318,-0.074906367,4.3486,0,237,237,18,1,48_2cc936b2483ab2944c9158e163342b874ef6c1492fd8fca08c0e096e_orig.jpg,-1.264224,-0.779604,original,nipe10,2022-04-19_14h42.11.715,ratings,2022.1.1,Linux x86_64,74.97375918
-1.891385768,2.5985,1.310861423,3.5475,0,238,238,170,1,365_45a719cabbc9aa308c4fcb30d529489c6966ac4073874af84f665c61_edges.jpg,2.507936,-1.968252,edges,nipe10,2022-04-19_14h42.11.715,ratings,2022.1.1,Linux x86_64,74.97375918
-0.608614232,5.3234,-0.505617978,6.2333,0,239,239,386,1,646_577760d718dab44c6f04d77408c5644a120065ce07a9503957d0850a_edges.jpg,-2.690668,2.61324,edges,nipe10,2022-04-19_14h42.11.715,ratings,2022.1.1,Linux x86_64,74.97375918
-1.348314607,4.1727,0.018726592,8.2992,0,240,240,344,1,494_5c6c3b85a2734a43c24bfe337d42ffcc82b7347227804d01c784cef4_edges.jpg,0.03871468,0.0,edges,nipe10,2022-04-19_14h42.11.715,ratings,2022.1.1,Linux x86_64,74.97375918
-1.956928839,1.7323,-0.683520599,4.5717,0,241,241,107,1,284_cdcbd54fc995081ac95c8b2c37a19cebb341f61a8eb268cee1623492_circblurext.jpg,-1.015872,2.095236,circularblurringext,nipe10,2022-04-19_14h42.11.715,ratings,2022.1.1,Linux x86_64,74.97375918
-2.677902622,10.9975,1.647940075,11.647,0,242,242,125,1,347_27f0e47c2722605b950ccf9fa900f78271e4c3c874064ab5dacac160_circblurext.jpg,1.838948,0.3097172,circularblurringext,nipe10,2022-04-19_14h42.11.715,ratings,2022.1.1,Linux x86_64,74.97375918
-0.308988764,15.5493,-0.187265918,10.0989,0,243,243,544,1,1005_b980c0747d20935bc63cc27a9e05ce2ff5bae98f859872ec48edd7f5_circblurint.jpg,3.428572,-0.476192,circularblurringint,nipe10,2022-04-19_14h42.11.715,ratings,2022.1.1,Linux x86_64,74.97375918
-0.065543071,11.4106,-1.338951311,15.8931,0,244,244,427,1,694_7a14b8ab7c564dcb0f628c4de7f6cb54e4c5f6601f774bf167641c37_bw.jpg,1.819588,0.116144,blackwhite,nipe10,2022-04-19_14h42.11.715,ratings,2022.1.1,Linux x86_64,74.97375918
0.898876404,5.0231,0.852059925,6.0822,0,245,245,151,1,355_00a76f54934d36566dd0e7b091b8aa6a56d8e6b32d349aa578a10b45_bw.jpg,2.910052,0.3439152,blackwhite,nipe10,2022-04-19_14h42.11.715,ratings,2022.1.1,Linux x86_64,74.97375918
0.037453184,3.3596,-0.177902622,4.3603,0,246,246,426,1,694_7a14b8ab7c564dcb0f628c4de7f6cb54e4c5f6601f774bf167641c37_orig.jpg,1.819588,0.116144,original,nipe10,2022-04-19_14h42.11.715,ratings,2022.1.1,Linux x86_64,74.97375918
-2.106741573,1.8319,1.22659176,2.6997,0,247,247,153,1,355_00a76f54934d36566dd0e7b091b8aa6a56d8e6b32d349aa578a10b45_blur.jpg,2.910052,0.3439152,blurring,nipe10,2022-04-19_14h42.11.715,ratings,2022.1.1,Linux x86_64,74.97375918
-1.535580524,9.7773,-1.825842697,10.4267,0,248,248,481,1,759_95e1c46ed9a337414d5c8eada8fa8b9632e18751f5ce6ed587806e91_bw.jpg,2.126984,0.0,blackwhite,nipe10,2022-04-19_14h42.11.715,ratings,2022.1.1,Linux x86_64,74.97375918
-0.524344569,11.294,-0.608614232,12.67,0,249,249,133,1,349_8809a67686d34844c915d7700e2ea72ad1c02ae232ae0d3cc0e458d4_bw.jpg,-3.619048,-0.2857144,blackwhite,nipe10,2022-04-19_14h42.11.715,ratings,2022.1.1,Linux x86_64,74.97375918
-1.54494382,3.6165,0.683520599,5.4158,0,250,250,95,1,258_d26019382777d2159a974a7654923e71598135ce2cd710cea1f92865_circblurext.jpg,3.497684,-0.61104,circularblurringext,nipe10,2022-04-19_14h42.11.715,ratings,2022.1.1,Linux x86_64,74.97375918
-0.383895131,2.7318,-0.552434457,3.3503,0,251,251,577,1,1061_665178b9cb0bc869cc2e2b68def4838db04e66f9531098fb75875a09_bw.jpg,0.3492064,-0.3174604,blackwhite,nipe10,2022-04-19_14h42.11.715,ratings,2022.1.1,Linux x86_64,74.97375918
-1.338951311,1.465,1.132958801,2.0819,0,252,252,424,1,692_e3e3bf88684fbbcdb9849a4147f9e2fcd39b0f083554a829aca4e9fa_circblurint.jpg,-0.44522,3.135888,circularblurringint,nipe10,2022-04-19_14h42.11.715,ratings,2022.1.1,Linux x86_64,74.97375918
-0.468164794,4.3743,-0.449438202,5.0242,0,253,253,20,1,48_2cc936b2483ab2944c9158e163342b874ef6c1492fd8fca08c0e096e_edges.jpg,-1.264224,-0.779604,edges,nipe10,2022-04-19_14h42.11.715,ratings,2022.1.1,Linux x86_64,74.97375918
-1.816479401,1.1493,1.151685393,2.5329,0,254,254,195,1,379_eeaa6d9bf5a4ef205dc48bc505cf3a7f24ea86e99af9b371e03602a7_blur.jpg,-0.3926308,2.88936,blurring,nipe10,2022-04-19_14h42.11.715,ratings,2022.1.1,Linux x86_64,74.97375918
-0.664794007,1.8494,-0.458801498,2.2745,0,255,255,413,1,687_e3b018945792a574962235c88c553b7c318c75eec2596478e8a7b877_circblurext.jpg,3.63918,-0.42586,circularblurringext,nipe10,2022-04-19_14h42.11.715,ratings,2022.1.1,Linux x86_64,74.97375918
-1.395131086,1.6234,0.739700375,2.8118,0,256,256,121,1,347_27f0e47c2722605b950ccf9fa900f78271e4c3c874064ab5dacac160_bw.jpg,1.838948,0.3097172,blackwhite,nipe10,2022-04-19_14h42.11.715,ratings,2022.1.1,Linux x86_64,74.97375918
-1.310861423,2.2667,0.683520599,3.9334,0,257,257,52,1,112_b6a4ce721c2e42943d7d8b168751d74cd2f372b1cd4fed5a4404faec_circblurint.jpg,2.107036,0.505688,circularblurringint,nipe10,2022-04-19_14h42.11.715,ratings,2022.1.1,Linux x86_64,74.97375918
-1.329588015,2.2662,0.823970037,2.9997,0,258,258,164,1,361_b5541309527dc3c2422f45a95ebb0ed32005e6fe10d0489a1ff1fbdc_edges.jpg,-3.987612,-0.2516452,edges,nipe10,2022-04-19_14h42.11.715,ratings,2022.1.1,Linux x86_64,74.97375918
0.337078652,2.1261,-0.262172285,2.8773,0,259,259,128,1,349_18d92ef5c21ca70a3dd237aad251594e1688bbe01d8cff37b89c46b8_edges.jpg,-2.74874,-1.258228,edges,nipe10,2022-04-19_14h42.11.715,ratings,2022.1.1,Linux x86_64,74.97375918
-0.449438202,1.541,-0.374531835,2.3988,0,260,260,260,1,416_8a1f874e0057d67a4e6955865ba88b2d8ce2c8b4469589307687a723_edges.jpg,-1.753336,3.088264,edges,nipe10,2022-04-19_14h42.11.715,ratings,2022.1.1,Linux x86_64,74.97375918
-0.393258427,1.167,-0.346441948,1.7828,0,261,261,296,1,449_9c1e990a3480e5b51430fe76b0188e69ba2468fd6a866b88b2d0dd75_edges.jpg,0.095238,0.03174604,edges,nipe10,2022-04-19_14h42.11.715,ratings,2022.1.1,Linux x86_64,74.97375918
0.15917603,4.8562,-0.402621723,3.3082,0,262,262,433,1,694_f80f33613b268beffd6c044537cf3b44a84683d6e889bc37b8e9c34b_bw.jpg,-0.3785616,3.34728,blackwhite,nipe10,2022-04-19_14h42.11.715,ratings,2022.1.1,Linux x86_64,74.97375918
-0.346441948,3.2155,-0.63670412,4.466,0,263,263,113,1,293_3dfdfafc0c6a54b2da7453750ac281f7718c0b3337b0a74c4563d6bd_circblurext.jpg,-2.574524,2.632596,circularblurringext,nipe10,2022-04-19_14h42.11.715,ratings,2022.1.1,Linux x86_64,74.97375918
-2.106741573,1.7103,-0.262172285,3.9258,0,264,264,315,1,459_46e25de472bb056cb470716d30937415f7344bfc4354d6eb710d8c9f_blur.jpg,0.03174604,0.0,blurring,nipe10,2022-04-19_14h42.11.715,ratings,2022.1.1,Linux x86_64,74.97375918
0.720973783,4.0135,0.74906367,4.7231,0,265,265,112,1,293_3dfdfafc0c6a54b2da7453750ac281f7718c0b3337b0a74c4563d6bd_circblurint.jpg,-2.574524,2.632596,circularblurringint,nipe10,2022-04-19_14h42.11.715,ratings,2022.1.1,Linux x86_64,74.97375918
-0.280898876,1.5507,-0.440074906,4.8917,0,266,266,35,1,60_ad52063167538de24f94d7dfd04808cb94cf8f426c40871d2f126505_circblurext.jpg,2.158732,0.0,circularblurringext,nipe10,2022-04-19_14h42.11.715,ratings,2022.1.1,Linux x86_64,74.97375918
-1.498127341,2.9544,-0.63670412,3.6675,0,267,267,213,1,394_8e3a0cb945144d53bd1ace04b6256237ed9dcbbd9cb83f8a4886b0e6_blur.jpg,-2.593884,2.651956,blurring,nipe10,2022-04-19_14h42.11.715,ratings,2022.1.1,Linux x86_64,74.97375918
-1.70411985,2.0972,0.983146067,2.6785,0,268,268,569,1,1037_e2eb929a6de79a63ce6cfe5321fcb74a203b134e4094932d90b01d99_circblurext.jpg,2.651956,0.0,circularblurringext,nipe10,2022-04-19_14h42.11.715,ratings,2022.1.1,Linux x86_64,74.97375918
0.440074906,4.5814,0.580524345,5.8013,0,269,269,366,1,616_05a637f5281666f53d4e2ef69351485fc21d629b37ee2006b2076eb6_orig.jpg,-2.380952,-0.832364,original,nipe10,2022-04-19_14h42.11.715,ratings,2022.1.1,Linux x86_64,74.97375918
-0.486891386,1.9472,-0.580524345,2.5474,0,270,270,271,1,434_ba36d91204d7e578001f6a545d7501e65d209554def5a3c8b7583825_bw.jpg,-3.523808,1.428572,blackwhite,nipe10,2022-04-19_14h42.11.715,ratings,2022.1.1,Linux x86_64,74.97375918
-1.451310861,3.5586,1.123595506,4.1097,0,271,271,257,1,416_5eb54976bb41ce2a6d129ef985f792e716f010fb9b69b15f50f5d2db_circblurext.jpg,-2.58766,2.602972,circularblurringext,nipe10,2022-04-19_14h42.11.715,ratings,2022.1.1,Linux x86_64,74.97375918
-1.54494382,1.5326,1.179775281,2.0501,0,272,272,172,1,365_45a719cabbc9aa308c4fcb30d529489c6966ac4073874af84f665c61_circblurint.jpg,2.507936,-1.968252,circularblurringint,nipe10,2022-04-19_14h42.11.715,ratings,2022.1.1,Linux x86_64,74.97375918
-1.357677903,2.0105,1.329588015,2.8429,0,273,273,124,1,347_27f0e47c2722605b950ccf9fa900f78271e4c3c874064ab5dacac160_circblurint.jpg,1.838948,0.3097172,circularblurringint,nipe10,2022-04-19_14h42.11.715,ratings,2022.1.1,Linux x86_64,74.97375918
-1.395131086,1.4003,1.43258427,2.0827,0,274,274,501,1,854_081a8409e4d6d10923b2dedcc16a3fca405fcd602e55a20d84cac69d_blur.jpg,3.088264,1.21538,blurring,nipe10,2022-04-19_14h42.11.715,ratings,2022.1.1,Linux x86_64,74.97375918
-1.722846442,1.1829,1.048689139,4.0711,0,275,275,53,1,112_b6a4ce721c2e42943d7d8b168751d74cd2f372b1cd4fed5a4404faec_circblurext.jpg,2.107036,0.505688,circularblurringext,nipe10,2022-04-19_14h42.11.715,ratings,2022.1.1,Linux x86_64,74.97375918
-0.252808989,2.8834,-0.224719101,3.6495,0,276,276,450,1,716_2ab64478147184c4df720a52cf621875addc9007cb2967e4a9a88909_orig.jpg,2.428484,0.0,original,nipe10,2022-04-19_14h42.11.715,ratings,2022.1.1,Linux x86_64,74.97375918
-2.078651685,3.7159,0.852059925,5.2009,0,277,277,575,1,1039_d64da8480fc6e94dcdc513237d600570ae0b9fe48795ac6a8b2d29a7_circblurext.jpg,-2.507936,-1.142856,circularblurringext,nipe10,2022-04-19_14h42.11.715,ratings,2022.1.1,Linux x86_64,74.97375918
-1.835205993,1.8325,1.367041199,2.5826,0,278,278,381,1,640_0ddb4981a5f5842ed5b4f7ef941be53779189df5e718b1fc5475ad80_blur.jpg,2.571428,-1.873016,blurring,nipe10,2022-04-19_14h42.11.715,ratings,2022.1.1,Linux x86_64,74.97375918
-2.116104869,6.1169,0.861423221,7.5674,0,279,279,87,1,243_beddb302dcb21071d88c8d2cab07002050d36b3001ef28f89389fa56_blur.jpg,-0.3450656,-0.2070392,blurring,nipe10,2022-04-19_14h42.11.715,ratings,2022.1.1,Linux x86_64,74.97375918
-1.029962547,8.3304,0.74906367,8.814,0,280,280,118,1,332_4d584229bdae2e1782f77f0e953e528f13c3dfa79b4b94736c0310fa_circblurint.jpg,3.157348,0.483092,circularblurringint,nipe10,2022-04-19_14h42.11.715,ratings,2022.1.1,Linux x86_64,74.97375918
-1.86329588,2.3038,0.95505618,3.8203,0,281,281,437,1,694_f80f33613b268beffd6c044537cf3b44a84683d6e889bc37b8e9c34b_circblurext.jpg,-0.3785616,3.34728,circularblurringext,nipe10,2022-04-19_14h42.11.715,ratings,2022.1.1,Linux x86_64,74.97375918
-2.518726592,2.8732,1.582397004,1.9062,0,282,282,141,1,353_44e285740cb41818482ac93fc5fbd72c18029444a1d7506c9fc053e7_blur.jpg,-3.232676,-0.87108,blurring,nipe10,2022-04-19_14h42.11.715,ratings,2022.1.1,Linux x86_64,74.97375918
1.058052434,8.2838,0.74906367,3.9,0,283,283,504,1,855_66d893451dfd1e7615132071c6c8a82b02dc2b37781cd89400883b26_orig.jpg,2.69484,0.2143624,original,nipe10,2022-04-19_14h42.11.715,ratings,2022.1.1,Linux x86_64,74.97375918
-1.404494382,1.3652,0.786516854,3.4709,0,284,284,220,1,396_208259ea431d47bb7f3946213eb099834eb119756ce304ad473d4d9f_circblurint.jpg,2.857144,-0.3809524,circularblurringint,nipe10,2022-04-19_14h42.11.715,ratings,2022.1.1,Linux x86_64,74.97375918
-2.200374532,4.2658,1.43258427,5.3337,0,285,285,499,1,854_081a8409e4d6d10923b2dedcc16a3fca405fcd602e55a20d84cac69d_bw.jpg,3.088264,1.21538,blackwhite,nipe10,2022-04-19_14h42.11.715,ratings,2022.1.1,Linux x86_64,74.97375918
-2.125468165,4.3034,-1.610486891,3.4832,0,286,286,306,1,455_34a7d8167619d110206c369e3f7dce8a3f99db763a9d8e2b956501d3_orig.jpg,-2.526412,-0.3827896,original,nipe10,2022-04-19_14h42.11.715,ratings,2022.1.1,Linux x86_64,74.97375918
-1.001872659,2.1301,-1.217228464,2.9793,0,287,287,587,1,1225_59c67a821456f2cce3e5acf66d7f00076bd02caffc984c1eb0df794e_circblurext.jpg,-0.444444,3.809524,circularblurringext,nipe10,2022-04-19_14h42.11.715,ratings,2022.1.1,Linux x86_64,74.97375918
-1.601123596,1.9827,0.608614232,2.9327,0,288,288,332,1,482_a1cd28915c5044c018195ab0fff10dcc95e385246b045a7cd4463ff7_edges.jpg,-3.361852,-1.555612,edges,nipe10,2022-04-19_14h42.11.715,ratings,2022.1.1,Linux x86_64,74.97375918
-2.031835206,2.3013,0.964419476,2.7986,0,289,289,446,1,709_69c01dcde028a2a1a913f1a2a5026ae1748484f75c89217a040c6791_edges.jpg,1.432444,-0.01935732,edges,nipe10,2022-04-19_14h42.11.715,ratings,2022.1.1,Linux x86_64,74.97375918
-2.275280899,3.9993,-2.256554307,2.8592,0,290,290,333,1,482_a1cd28915c5044c018195ab0fff10dcc95e385246b045a7cd4463ff7_blur.jpg,-3.361852,-1.555612,blurring,nipe10,2022-04-19_14h42.11.715,ratings,2022.1.1,Linux x86_64,74.97375918
-0.374531835,1.7985,-0.215355805,3.1485,0,291,291,550,1,1010_06d15f44b979c086561137000ec070ba4cd479856f92840a7850b2bf_circblurint.jpg,0.189786,-0.189786,circularblurringint,nipe10,2022-04-19_14h42.11.715,ratings,2022.1.1,Linux x86_64,74.97375918
-0.917602996,3.5292,-0.280898876,4.2626,0,292,292,238,1,410_9633c4ff6e8888fcfca59a60ca86e9606d3e0736500a254101bdf295_circblurint.jpg,-0.3677892,2.981028,circularblurringint,nipe10,2022-04-19_14h42.11.715,ratings,2022.1.1,Linux x86_64,74.97375918
0.926966292,4.3515,-2.013108614,5.8245,0,293,293,186,1,369_c99797771115d7627d4abe3415f814497288f91a7be1a04c17c776b9_orig.jpg,3.619824,-0.174216,original,nipe10,2022-04-19_14h42.11.715,ratings,2022.1.1,Linux x86_64,74.97375918
0.692883895,2.0722,0.926966292,4.9712,0,294,294,44,1,92_5d20d78a8e57e628c6930676473a4e0a485e715841efd6286c660020_edges.jpg,2.126984,0.0,edges,nipe10,2022-04-19_14h42.11.715,ratings,2022.1.1,Linux x86_64,74.97375918
-2.013108614,1.5014,1.245318352,2.5331,0,295,295,179,1,368_6507b94d7d0199f14efd3706db30c9c44b96085f84e9cc7792e3e0ae_circblurext.jpg,1.959544,0.400336,circularblurringext,nipe10,2022-04-19_14h42.11.715,ratings,2022.1.1,Linux x86_64,74.97375918
-2.949438202,2.3434,-2.762172285,3.0059,0,296,296,307,1,455_34a7d8167619d110206c369e3f7dce8a3f99db763a9d8e2b956501d3_bw.jpg,-2.526412,-0.3827896,blackwhite,nipe10,2022-04-19_14h42.11.715,ratings,2022.1.1,Linux x86_64,74.97375918
-2.481273408,11.5625,1.610486891,12.1957,0,297,297,51,1,112_b6a4ce721c2e42943d7d8b168751d74cd2f372b1cd4fed5a4404faec_blur.jpg,2.107036,0.505688,blurring,nipe10,2022-04-19_14h42.11.715,ratings,2022.1.1,Linux x86_64,74.97375918
0.496254682,8.8317,0.383895131,9.7643,0,298,298,28,1,59_8568373b727f29d67ba6ce4c360dd918c8b08b13495fca56bdda5e82_circblurint.jpg,2.064896,0.505688,circularblurringint,nipe10,2022-04-19_14h42.11.715,ratings,2022.1.1,Linux x86_64,74.97375918
-2.191011236,2.0623,1.516853933,2.8779,0,299,299,592,1,1228_557412d34d6a70b7c5d222e030aa485b351a4574e8ba1a3112d1d13d_circblurint.jpg,2.137444,0.703464,circularblurringint,nipe10,2022-04-19_14h42.11.715,ratings,2022.1.1,Linux x86_64,74.97375918
-2.209737828,4.7904,0.63670412,5.6539,0,300,300,161,1,358_157f8ac929713531a15b1ecf115e7b659cb90e83d675251e368d165f_circblurext.jpg,-3.777776,-0.571428,circularblurringext,nipe10,2022-04-19_14h42.11.715,ratings,2022.1.1,Linux x86_64,74.97375918
-2.200374532,3.4895,0.177902622,5.2824,0,301,301,325,1,468_8b69b13120daebadd8a4a3166e1419f2404395cba231307a4efa9fde_bw.jpg,2.031744,0.2539684,blackwhite,nipe10,2022-04-19_14h42.11.715,ratings,2022.1.1,Linux x86_64,74.97375918
-0.917602996,5.8098,-2.631086142,7.3237,0,302,302,492,1,824_b1d91cc824ce0d3d383d3147da88d3d6dbaf6be918bab79e3ec8f501_orig.jpg,-3.645176,-1.432784,original,nipe10,2022-04-19_14h42.11.715,ratings,2022.1.1,Linux x86_64,74.97375918
-0.112359551,8.5663,-0.196629213,7.5825,0,303,303,342,1,494_5c6c3b85a2734a43c24bfe337d42ffcc82b7347227804d01c784cef4_orig.jpg,0.03871468,0.0,original,nipe10,2022-04-19_14h42.11.715,ratings,2022.1.1,Linux x86_64,74.97375918
-0.046816479,2.108,-0.215355805,2.6762,0,304,304,252,1,416_5eb54976bb41ce2a6d129ef985f792e716f010fb9b69b15f50f5d2db_orig.jpg,-2.58766,2.602972,original,nipe10,2022-04-19_14h42.11.715,ratings,2022.1.1,Linux x86_64,74.97375918
0.449438202,3.8242,0.177902622,6.4568,0,305,305,144,1,354_e46c3ec6fb00773f64f2bcd212385f253c389808fe724b7cf8611051_orig.jpg,2.018292,0.0,original,nipe10,2022-04-19_14h42.11.715,ratings,2022.1.1,Linux x86_64,74.97375918
-2.762172285,1.2109,1.563670412,1.9453,0,306,306,599,1,1239_cee00457f4cfb76a407b12fd5ad714d440a4614c1e5467ee16caf618_circblurext.jpg,-0.03174604,0.190476,circularblurringext,nipe10,2022-04-19_14h42.11.715,ratings,2022.1.1,Linux x86_64,74.97375918
-2.275280899,1.0166,1.27340824,1.585,0,307,307,297,1,449_9c1e990a3480e5b51430fe76b0188e69ba2468fd6a866b88b2d0dd75_blur.jpg,0.095238,0.03174604,blurring,nipe10,2022-04-19_14h42.11.715,ratings,2022.1.1,Linux x86_64,74.97375918
-1.86329588,1.9835,0.74906367,2.8171,0,308,308,268,1,431_ab5a1dbbe9292ac7f74e276cdabcd372e2c1f852ff34bf7cc6646ef8_circblurint.jpg,3.102584,0.354334,circularblurringint,nipe10,2022-04-19_14h42.11.715,ratings,2022.1.1,Linux x86_64,74.97375918
-1.685393258,2.4833,0.63670412,7.9148,0,309,309,258,1,416_8a1f874e0057d67a4e6955865ba88b2d8ce2c8b4469589307687a723_orig.jpg,-1.753336,3.088264,original,nipe10,2022-04-19_14h42.11.715,ratings,2022.1.1,Linux x86_64,74.97375918
-1.039325843,3.8926,-0.355805243,5.0252,0,310,310,71,1,172_c641c6c56ca6b594b773084e1363c852abdb65f988d7ff802ee503f2_circblurext.jpg,0.379572,0.01725328,circularblurringext,nipe10,2022-04-19_14h42.11.715,ratings,2022.1.1,Linux x86_64,74.97375918
-0.936329588,2.5505,-0.383895131,3.3574,0,311,311,152,1,355_00a76f54934d36566dd0e7b091b8aa6a56d8e6b32d349aa578a10b45_edges.jpg,2.910052,0.3439152,edges,nipe10,2022-04-19_14h42.11.715,ratings,2022.1.1,Linux x86_64,74.97375918
-2.275280899,4.3283,1.011235955,2.9294,0,312,312,590,1,1228_557412d34d6a70b7c5d222e030aa485b351a4574e8ba1a3112d1d13d_edges.jpg,2.137444,0.703464,edges,nipe10,2022-04-19_14h42.11.715,ratings,2022.1.1,Linux x86_64,74.97375918
-1.966292135,9.1153,-0.215355805,9.8823,0,313,313,143,1,353_44e285740cb41818482ac93fc5fbd72c18029444a1d7506c9fc053e7_circblurext.jpg,-3.232676,-0.87108,circularblurringext,nipe10,2022-04-19_14h42.11.715,ratings,2022.1.1,Linux x86_64,74.97375918
-1.535580524,8.3817,-0.308988764,10.8321,0,314,314,215,1,394_8e3a0cb945144d53bd1ace04b6256237ed9dcbbd9cb83f8a4886b0e6_circblurext.jpg,-2.593884,2.651956,circularblurringext,nipe10,2022-04-19_14h42.11.715,ratings,2022.1.1,Linux x86_64,74.97375918
-0.112359551,1.6508,-0.524344569,2.5997,0,315,315,234,1,410_9633c4ff6e8888fcfca59a60ca86e9606d3e0736500a254101bdf295_orig.jpg,-0.3677892,2.981028,original,nipe10,2022-04-19_14h42.11.715,ratings,2022.1.1,Linux x86_64,74.97375918
-0.692883895,10.4049,-2.312734082,8.5064,0,316,316,157,1,358_157f8ac929713531a15b1ecf115e7b659cb90e83d675251e368d165f_bw.jpg,-3.777776,-0.571428,blackwhite,nipe10,2022-04-19_14h42.11.715,ratings,2022.1.1,Linux x86_64,74.97375918
-1.338951311,3.2225,0.674157303,3.8148,0,317,317,509,1,855_66d893451dfd1e7615132071c6c8a82b02dc2b37781cd89400883b26_circblurext.jpg,2.69484,0.2143624,circularblurringext,nipe10,2022-04-19_14h42.11.715,ratings,2022.1.1,Linux x86_64,74.97375918
-1.217228464,1.981,-0.486891386,3.3013,0,318,318,138,1,353_44e285740cb41818482ac93fc5fbd72c18029444a1d7506c9fc053e7_orig.jpg,-3.232676,-0.87108,original,nipe10,2022-04-19_14h42.11.715,ratings,2022.1.1,Linux x86_64,74.97375918
-2.125468165,1.5003,1.348314607,2.2524,0,319,319,519,1,860_05c4e22518a30d3d2add458a8fc6488f87b9b02dd8e385ded939f025_blur.jpg,1.955092,0.3097172,blurring,nipe10,2022-04-19_14h42.11.715,ratings,2022.1.1,Linux x86_64,74.97375918
-1.11423221,1.9306,0.543071161,2.5305,0,320,320,484,1,759_95e1c46ed9a337414d5c8eada8fa8b9632e18751f5ce6ed587806e91_circblurint.jpg,2.126984,0.0,circularblurringint,nipe10,2022-04-19_14h42.11.715,ratings,2022.1.1,Linux x86_64,74.97375918
-1.797752809,1.3009,1.217228464,1.7483,0,321,321,287,1,440_dc6413e2b65369ee2587f4d85621742fe4ca87392d0a8ad2ea7d94e3_circblurext.jpg,-3.016216,1.69404,circularblurringext,nipe10,2022-04-19_14h42.11.715,ratings,2022.1.1,Linux x86_64,74.97375918
-1.779026217,1.6166,0.973782772,2.2356,0,322,322,166,1,361_b5541309527dc3c2422f45a95ebb0ed32005e6fe10d0489a1ff1fbdc_circblurint.jpg,-3.987612,-0.2516452,circularblurringint,nipe10,2022-04-19_14h42.11.715,ratings,2022.1.1,Linux x86_64,74.97375918
-2.144194757,1.0999,1.582397004,1.6006,0,323,323,14,1,39_2fafccaa4dc69045a05845f59c6b3cd2edcf7e0e0c108b24e553afe0_edges.jpg,2.022756,0.463548,edges,nipe10,2022-04-19_14h42.11.715,ratings,2022.1.1,Linux x86_64,74.97375918
-0.964419476,3.4647,-0.571161049,4.2488,0,324,324,369,1,616_05a637f5281666f53d4e2ef69351485fc21d629b37ee2006b2076eb6_blur.jpg,-2.380952,-0.832364,blurring,nipe10,2022-04-19_14h42.11.715,ratings,2022.1.1,Linux x86_64,74.97375918
-1.807116105,4.1986,0.608614232,4.8083,0,325,325,299,1,449_9c1e990a3480e5b51430fe76b0188e69ba2468fd6a866b88b2d0dd75_circblurext.jpg,0.095238,0.03174604,circularblurringext,nipe10,2022-04-19_14h42.11.715,ratings,2022.1.1,Linux x86_64,74.97375918
-1.282771536,2.1963,1.06741573,3.0845,0,326,326,473,1,741_2b218fb015e3da83db73cacdb52e61e0c2534c1fe255bb1c5c74d47f_circblurext.jpg,3.140096,0.448584,circularblurringext,nipe10,2022-04-19_14h42.11.715,ratings,2022.1.1,Linux x86_64,74.97375918
-1.329588015,4.0291,0.711610487,5.1395,0,327,327,338,1,492_a1a4d288d3bc486c83c3b6a835c42891989f5ba781633932298a7676_edges.jpg,3.406892,-0.44522,edges,nipe10,2022-04-19_14h42.11.715,ratings,2022.1.1,Linux x86_64,74.97375918
-2.18164794,1.2324,0.983146067,2.5146,0,328,328,16,1,39_2fafccaa4dc69045a05845f59c6b3cd2edcf7e0e0c108b24e553afe0_circblurint.jpg,2.022756,0.463548,circularblurringint,nipe10,2022-04-19_14h42.11.715,ratings,2022.1.1,Linux x86_64,74.97375918
1.264044944,8.5656,1.123595506,9.6485,0,329,329,276,1,440_9bf7e8609729bf888835168834da6c3ff30b75d0d4f36e2ee6918bcc_orig.jpg,-2.284164,2.710028,original,nipe10,2022-04-19_14h42.11.715,ratings,2022.1.1,Linux x86_64,74.97375918
-1.367041199,1.3164,0.514981273,2.3332,0,330,330,263,1,416_8a1f874e0057d67a4e6955865ba88b2d8ce2c8b4469589307687a723_circblurext.jpg,-1.753336,3.088264,circularblurringext,nipe10,2022-04-19_14h42.11.715,ratings,2022.1.1,Linux x86_64,74.97375918
-1.54494382,1.2181,1.217228464,1.8123,0,331,331,518,1,860_05c4e22518a30d3d2add458a8fc6488f87b9b02dd8e385ded939f025_edges.jpg,1.955092,0.3097172,edges,nipe10,2022-04-19_14h42.11.715,ratings,2022.1.1,Linux x86_64,74.97375918
-1.657303371,1.7518,1.11423221,2.7378,0,332,332,34,1,60_ad52063167538de24f94d7dfd04808cb94cf8f426c40871d2f126505_circblurint.jpg,2.158732,0.0,circularblurringint,nipe10,2022-04-19_14h42.11.715,ratings,2022.1.1,Linux x86_64,74.97375918
-2.228464419,1.3352,-2.481273408,2.4318,0,333,333,88,1,243_beddb302dcb21071d88c8d2cab07002050d36b3001ef28f89389fa56_circblurint.jpg,-0.3450656,-0.2070392,circularblurringint,nipe10,2022-04-19_14h42.11.715,ratings,2022.1.1,Linux x86_64,74.97375918
-0.393258427,3.5521,-0.449438202,5.7973,0,334,334,559,1,1022_cf035e583d41a856836f8b0ae314ecbe79dffd9e40ef6a08cc26028f_bw.jpg,-0.2516452,3.05846,blackwhite,nipe10,2022-04-19_14h42.11.715,ratings,2022.1.1,Linux x86_64,74.97375918
-1.11423221,6.5898,-2.144194757,7.9598,0,335,335,7,1,28_6318543b74eeb646a1735477ebc023fdc9ac3849bc0db1957c272a26_bw.jpg,2.811244,-0.74584,blackwhite,nipe10,2022-04-19_14h42.11.715,ratings,2022.1.1,Linux x86_64,74.97375918
1.095505618,2.8416,1.029962547,8.6242,0,336,336,228,1,407_578d31d32e806706dde2563213f130b90e621abfed0e47ecabd85d27_orig.jpg,3.5873,-0.444444,original,nipe10,2022-04-19_14h42.11.715,ratings,2022.1.1,Linux x86_64,74.97375918
-1.779026217,5.6403,-2.397003745,37.3062,0,337,337,126,1,349_18d92ef5c21ca70a3dd237aad251594e1688bbe01d8cff37b89c46b8_orig.jpg,-2.74874,-1.258228,original,nipe10,2022-04-19_14h42.11.715,ratings,2022.1.1,Linux x86_64,74.97375918
-1.86329588,2.8993,0.63670412,3.5501,0,338,338,38,1,82_43f4d5aec7c2e5bd495473f6708a0f2d47c9fe34e1fe9436646cb036_edges.jpg,2.022756,0.505688,edges,nipe10,2022-04-19_14h42.11.715,ratings,2022.1.1,Linux x86_64,74.97375918
-1.872659176,0.9495,0.79588015,3.8825,0,339,339,123,1,347_27f0e47c2722605b950ccf9fa900f78271e4c3c874064ab5dacac160_blur.jpg,1.838948,0.3097172,blurring,nipe10,2022-04-19_14h42.11.715,ratings,2022.1.1,Linux x86_64,74.97375918
-1.619850187,3.5564,-2.256554307,4.9668,0,340,340,25,1,59_8568373b727f29d67ba6ce4c360dd918c8b08b13495fca56bdda5e82_bw.jpg,2.064896,0.505688,blackwhite,nipe10,2022-04-19_14h42.11.715,ratings,2022.1.1,Linux x86_64,74.97375918
0.514981273,3.9646,-0.47752809,8.402,0,341,341,458,1,720_483c541c48959a597fcf44320941afaf8b7695105f90d65b5f6b30f2_edges.jpg,2.158732,-0.2539684,edges,nipe10,2022-04-19_14h42.11.715,ratings,2022.1.1,Linux x86_64,74.97375918
-0.964419476,13.7769,-1.70411985,14.5275,0,342,342,229,1,407_578d31d32e806706dde2563213f130b90e621abfed0e47ecabd85d27_bw.jpg,3.5873,-0.444444,blackwhite,nipe10,2022-04-19_14h42.11.715,ratings,2022.1.1,Linux x86_64,74.97375918
-1.460674157,22.9813,1.048689139,23.7082,0,343,343,70,1,172_c641c6c56ca6b594b773084e1363c852abdb65f988d7ff802ee503f2_circblurint.jpg,0.379572,0.01725328,circularblurringint,nipe10,2022-04-19_14h42.11.715,ratings,2022.1.1,Linux x86_64,74.97375918
-2.574906367,2.8104,1.835205993,2.2104,0,344,344,472,1,741_2b218fb015e3da83db73cacdb52e61e0c2534c1fe255bb1c5c74d47f_circblurint.jpg,3.140096,0.448584,circularblurringint,nipe10,2022-04-19_14h42.11.715,ratings,2022.1.1,Linux x86_64,74.97375918
-1.722846442,8.0002,-1.563670412,8.628,0,345,345,175,1,368_6507b94d7d0199f14efd3706db30c9c44b96085f84e9cc7792e3e0ae_bw.jpg,1.959544,0.400336,blackwhite,nipe10,2022-04-19_14h42.11.715,ratings,2022.1.1,Linux x86_64,74.97375918
-1.451310861,6.7936,-1.348314607,6.0269,0,346,346,259,1,416_8a1f874e0057d67a4e6955865ba88b2d8ce2c8b4469589307687a723_bw.jpg,-1.753336,3.088264,blackwhite,nipe10,2022-04-19_14h42.11.715,ratings,2022.1.1,Linux x86_64,74.97375918
-0.402621723,5.157,-0.440074906,5.7167,0,347,347,457,1,720_483c541c48959a597fcf44320941afaf8b7695105f90d65b5f6b30f2_bw.jpg,2.158732,-0.2539684,blackwhite,nipe10,2022-04-19_14h42.11.715,ratings,2022.1.1,Linux x86_64,74.97375918
-1.488764045,2.3208,-0.402621723,7.187,0,348,348,294,1,449_9c1e990a3480e5b51430fe76b0188e69ba2468fd6a866b88b2d0dd75_orig.jpg,0.095238,0.03174604,original,nipe10,2022-04-19_14h42.11.715,ratings,2022.1.1,Linux x86_64,74.97375918
-1.872659176,1.3831,1.460674157,2.1932,0,349,349,526,1,877_cab3efed0c9ff4552037df6c1ea4ea9713f915c94592a14dbf2799da_circblurint.jpg,3.174604,0.3174604,circularblurringint,nipe10,2022-04-19_14h42.11.715,ratings,2022.1.1,Linux x86_64,74.97375918
-3.117977528,1.698,2.518726592,2.3506,0,350,350,531,1,915_dc9fd40a3b5d64a180833a7bac86e7556c24f681f473fe255e41f936_blur.jpg,-3.09294,-0.918696,blurring,nipe10,2022-04-19_14h42.11.715,ratings,2022.1.1,Linux x86_64,74.97375918
-0.936329588,6.212,-1.011235955,7.1992,0,351,351,365,1,508_a7a9519cdc7aad6844030f4e6cd96cffd1b9c49b71e20ea52789bda2_circblurext.jpg,-3.000388,-1.29694,circularblurringext,nipe10,2022-04-19_14h42.11.715,ratings,2022.1.1,Linux x86_64,74.97375918
-0.187265918,2.9824,0.009363296,3.6489,0,352,352,522,1,877_cab3efed0c9ff4552037df6c1ea4ea9713f915c94592a14dbf2799da_orig.jpg,3.174604,0.3174604,original,nipe10,2022-04-19_14h42.11.715,ratings,2022.1.1,Linux x86_64,74.97375918
0.280898876,2.7325,0.889513109,4.5342,0,353,353,421,1,692_e3e3bf88684fbbcdb9849a4147f9e2fcd39b0f083554a829aca4e9fa_bw.jpg,-0.44522,3.135888,blackwhite,nipe10,2022-04-19_14h42.11.715,ratings,2022.1.1,Linux x86_64,74.97375918
-1.38576779,9.0529,0,10.803,0,354,354,363,1,508_a7a9519cdc7aad6844030f4e6cd96cffd1b9c49b71e20ea52789bda2_blur.jpg,-3.000388,-1.29694,blurring,nipe10,2022-04-19_14h42.11.715,ratings,2022.1.1,Linux x86_64,74.97375918
-0.31835206,2.427,-0.262172285,3.0589,0,355,355,368,1,616_05a637f5281666f53d4e2ef69351485fc21d629b37ee2006b2076eb6_edges.jpg,-2.380952,-0.832364,edges,nipe10,2022-04-19_14h42.11.715,ratings,2022.1.1,Linux x86_64,74.97375918
-0.617977528,1.5836,-0.421348315,2.2822,0,356,356,105,1,284_cdcbd54fc995081ac95c8b2c37a19cebb341f61a8eb268cee1623492_blur.jpg,-1.015872,2.095236,blurring,nipe10,2022-04-19_14h42.11.715,ratings,2022.1.1,Linux x86_64,74.97375918
-1.207865169,4.2567,-1.22659176,4.899,0,357,357,409,1,687_e3b018945792a574962235c88c553b7c318c75eec2596478e8a7b877_bw.jpg,3.63918,-0.42586,blackwhite,nipe10,2022-04-19_14h42.11.715,ratings,2022.1.1,Linux x86_64,74.97375918
-1.722846442,1.4616,1.076779026,2.0612,0,358,358,298,1,449_9c1e990a3480e5b51430fe76b0188e69ba2468fd6a866b88b2d0dd75_circblurint.jpg,0.095238,0.03174604,circularblurringint,nipe10,2022-04-19_14h42.11.715,ratings,2022.1.1,Linux x86_64,74.97375918
-2.125468165,1.3658,1.179775281,1.8659,0,359,359,226,1,403_57ac47f43882fc031a6067b1a388c0b2cbe8708dcbd2ff1019932eff_circblurint.jpg,-3.333332,-1.396824,circularblurringint,nipe10,2022-04-19_14h42.11.715,ratings,2022.1.1,Linux x86_64,74.97375918
-2.303370787,1.8649,1.535580524,2.5818,0,360,360,406,1,686_6745b57686ad5d1bd6cf3e7ed5bc0243a154f8939e88e30321dfcfdb_circblurint.jpg,-1.523808,3.650792,circularblurringint,nipe10,2022-04-19_14h42.11.715,ratings,2022.1.1,Linux x86_64,74.97375918
-1.320224719,5.6223,0.842696629,6.1711,0,361,361,309,1,455_34a7d8167619d110206c369e3f7dce8a3f99db763a9d8e2b956501d3_blur.jpg,-2.526412,-0.3827896,blurring,nipe10,2022-04-19_14h42.11.715,ratings,2022.1.1,Linux x86_64,74.97375918
-1.142322097,8.1228,0.823970037,8.7489,0,362,362,442,1,700_59cb565f134f1afd066d7b6d936c6511b7cb76de0e9cbb5ce15124ad_circblurint.jpg,0.0,0.0,circularblurringint,nipe10,2022-04-19_14h42.11.715,ratings,2022.1.1,Linux x86_64,74.97375918
-1.048689139,1.6974,0.9082397,2.1666,0,363,363,21,1,48_2cc936b2483ab2944c9158e163342b874ef6c1492fd8fca08c0e096e_blur.jpg,-1.264224,-0.779604,blurring,nipe10,2022-04-19_14h42.11.715,ratings,2022.1.1,Linux x86_64,74.97375918
-2.284644195,1.2454,1.498127341,1.9613,0,364,364,561,1,1022_cf035e583d41a856836f8b0ae314ecbe79dffd9e40ef6a08cc26028f_blur.jpg,-0.2516452,3.05846,blurring,nipe10,2022-04-19_14h42.11.715,ratings,2022.1.1,Linux x86_64,74.97375918
-0.730337079,9.5063,-0.880149813,10.316,0,365,365,379,1,640_0ddb4981a5f5842ed5b4f7ef941be53779189df5e718b1fc5475ad80_bw.jpg,2.571428,-1.873016,blackwhite,nipe10,2022-04-19_14h42.11.715,ratings,2022.1.1,Linux x86_64,74.97375918
-0.290262172,2.2818,-0.486891386,2.7154,0,366,366,345,1,494_5c6c3b85a2734a43c24bfe337d42ffcc82b7347227804d01c784cef4_blur.jpg,0.03871468,0.0,blurring,nipe10,2022-04-19_14h42.11.715,ratings,2022.1.1,Linux x86_64,74.97375918
-1.217228464,1.3991,0.655430712,3.1491,0,367,367,242,1,411_adfd0d5782129756321ff671d0cfb712528504c66c863df11aabd1e7_edges.jpg,-3.392332,-1.369576,edges,nipe10,2022-04-19_14h42.11.715,ratings,2022.1.1,Linux x86_64,74.97375918
-0.149812734,2.167,-0.102996255,3.3005,0,368,368,222,1,403_57ac47f43882fc031a6067b1a388c0b2cbe8708dcbd2ff1019932eff_orig.jpg,-3.333332,-1.396824,original,nipe10,2022-04-19_14h42.11.715,ratings,2022.1.1,Linux x86_64,74.97375918
-0.702247191,2.2327,-0.505617978,2.7825,0,369,369,488,1,818_877aae033c31e3bbca4486321a5307f87cf53c576c546462d3daf194_edges.jpg,-1.277584,0.619436,edges,nipe10,2022-04-19_14h42.11.715,ratings,2022.1.1,Linux x86_64,74.97375918
0.065543071,3.9812,0.140449438,4.5141,0,370,370,29,1,59_8568373b727f29d67ba6ce4c360dd918c8b08b13495fca56bdda5e82_circblurext.jpg,2.064896,0.505688,circularblurringext,nipe10,2022-04-19_14h42.11.715,ratings,2022.1.1,Linux x86_64,74.97375918
-0.571161049,4.8987,-0.43071161,5.3656,0,371,371,565,1,1037_e2eb929a6de79a63ce6cfe5321fcb74a203b134e4094932d90b01d99_bw.jpg,2.651956,0.0,blackwhite,nipe10,2022-04-19_14h42.11.715,ratings,2022.1.1,Linux x86_64,74.97375918
-0.561797753,19.1449,-0.449438202,20.6507,0,372,372,61,1,156_08e8cf8f04630e9213e610580de73f51572d1d589878648700bae4dc_bw.jpg,2.222224,0.0,blackwhite,nipe10,2022-04-19_14h42.11.715,ratings,2022.1.1,Linux x86_64,74.97375918
-1.835205993,14.6143,0.823970037,15.248,0,373,373,106,1,284_cdcbd54fc995081ac95c8b2c37a19cebb341f61a8eb268cee1623492_circblurint.jpg,-1.015872,2.095236,circularblurringint,nipe10,2022-04-19_14h42.11.715,ratings,2022.1.1,Linux x86_64,74.97375918
1.039325843,5.5733,0.617977528,4.6494,0,374,374,66,1,172_c641c6c56ca6b594b773084e1363c852abdb65f988d7ff802ee503f2_orig.jpg,0.379572,0.01725328,original,nipe10,2022-04-19_14h42.11.715,ratings,2022.1.1,Linux x86_64,74.97375918
0.823970037,8.6399,0.617977528,5.8664,0,375,375,467,1,736_bb85db1bcda8eb34299aa5791ac65a0a7c343266eb2d6e6e328ec0e1_circblurext.jpg,3.650792,-0.03174604,circularblurringext,nipe10,2022-04-19_14h42.11.715,ratings,2022.1.1,Linux x86_64,74.97375918
0.627340824,2.383,0.617977528,3.0512,0,376,376,478,1,748_e519892faa7c772a0afaf9eeff36cf0e411574027ab3d9aa4947a048_circblurint.jpg,-1.813112,3.307432,circularblurringint,nipe10,2022-04-19_14h42.11.715,ratings,2022.1.1,Linux x86_64,74.97375918
-0.973782772,3.1721,-0.552434457,5.7482,0,377,377,558,1,1022_cf035e583d41a856836f8b0ae314ecbe79dffd9e40ef6a08cc26028f_orig.jpg,-0.2516452,3.05846,original,nipe10,2022-04-19_14h42.11.715,ratings,2022.1.1,Linux x86_64,74.97375918
-0.374531835,4.2558,-0.561797753,4.9018,0,378,378,536,1,986_a77edb21e78bc3a6aa7406517824596b3496ad6c657b6befb84cf370_edges.jpg,-3.906316,-0.60496,edges,nipe10,2022-04-19_14h42.11.715,ratings,2022.1.1,Linux x86_64,74.97375918
-1.919475655,1.1089,0.945692884,1.6072,0,379,379,358,1,500_3b520c7f352afa1a9f8c07e56cc0588cdc04d25ff6e7b602b5e280cb_circblurint.jpg,-0.8328,3.11766,circularblurringint,nipe10,2022-04-19_14h42.11.715,ratings,2022.1.1,Linux x86_64,74.97375918
-2.116104869,1.0796,2.059925094,1.7096,0,380,380,243,1,411_adfd0d5782129756321ff671d0cfb712528504c66c863df11aabd1e7_blur.jpg,-3.392332,-1.369576,blurring,nipe10,2022-04-19_14h42.11.715,ratings,2022.1.1,Linux x86_64,74.97375918
-1.769662921,2.4511,0.299625468,3.1442,0,381,381,136,1,349_8809a67686d34844c915d7700e2ea72ad1c02ae232ae0d3cc0e458d4_circblurint.jpg,-3.619048,-0.2857144,circularblurringint,nipe10,2022-04-19_14h42.11.715,ratings,2022.1.1,Linux x86_64,74.97375918
-0.290262172,4.5318,-0.374531835,5.1144,0,382,382,210,1,394_8e3a0cb945144d53bd1ace04b6256237ed9dcbbd9cb83f8a4886b0e6_orig.jpg,-2.593884,2.651956,original,nipe10,2022-04-19_14h42.11.715,ratings,2022.1.1,Linux x86_64,74.97375918
-1.207865169,1.251,1.151685393,3.2646,0,383,383,503,1,854_081a8409e4d6d10923b2dedcc16a3fca405fcd602e55a20d84cac69d_circblurext.jpg,3.088264,1.21538,circularblurringext,nipe10,2022-04-19_14h42.11.715,ratings,2022.1.1,Linux x86_64,74.97375918
0.365168539,4.1372,0.43071161,5.3325,0,384,384,355,1,500_3b520c7f352afa1a9f8c07e56cc0588cdc04d25ff6e7b602b5e280cb_bw.jpg,-0.8328,3.11766,blackwhite,nipe10,2022-04-19_14h42.11.715,ratings,2022.1.1,Linux x86_64,74.97375918
-1.657303371,2.6321,0.926966292,3.865,0,385,385,339,1,492_a1a4d288d3bc486c83c3b6a835c42891989f5ba781633932298a7676_blur.jpg,3.406892,-0.44522,blurring,nipe10,2022-04-19_14h42.11.715,ratings,2022.1.1,Linux x86_64,74.97375918
-2.949438202,1.7327,1.835205993,2.4161,0,386,386,305,1,453_54f106fd1d4b65fa4aa347407127fc30d49f791e81aee3a0bbe44489_circblurext.jpg,2.222224,0.0,circularblurringext,nipe10,2022-04-19_14h42.11.715,ratings,2022.1.1,Linux x86_64,74.97375918
0.496254682,5.4677,-0.842696629,3.5659,0,387,387,440,1,700_59cb565f134f1afd066d7b6d936c6511b7cb76de0e9cbb5ce15124ad_edges.jpg,0.0,0.0,edges,nipe10,2022-04-19_14h42.11.715,ratings,2022.1.1,Linux x86_64,74.97375918
0.290262172,18.0969,0.018726592,19.8303,0,388,388,508,1,855_66d893451dfd1e7615132071c6c8a82b02dc2b37781cd89400883b26_circblurint.jpg,2.69484,0.2143624,circularblurringint,nipe10,2022-04-19_14h42.11.715,ratings,2022.1.1,Linux x86_64,74.97375918
-2.106741573,1.3327,1.460674157,1.8509,0,389,389,255,1,416_5eb54976bb41ce2a6d129ef985f792e716f010fb9b69b15f50f5d2db_blur.jpg,-2.58766,2.602972,blurring,nipe10,2022-04-19_14h42.11.715,ratings,2022.1.1,Linux x86_64,74.97375918
-0.983146067,1.8336,-0.9082397,2.7326,0,390,390,552,1,1014_a5c212ca979d482cf94c2db7697aba75620391a64b030ab7ad2bbecf_orig.jpg,-3.174604,-1.374372,original,nipe10,2022-04-19_14h42.11.715,ratings,2022.1.1,Linux x86_64,74.97375918
-1.076779026,2.8823,1.095505618,4.0831,0,391,391,171,1,365_45a719cabbc9aa308c4fcb30d529489c6966ac4073874af84f665c61_blur.jpg,2.507936,-1.968252,blurring,nipe10,2022-04-19_14h42.11.715,ratings,2022.1.1,Linux x86_64,74.97375918
-1.535580524,1.967,-1.994382022,2.5679,0,392,392,505,1,855_66d893451dfd1e7615132071c6c8a82b02dc2b37781cd89400883b26_bw.jpg,2.69484,0.2143624,blackwhite,nipe10,2022-04-19_14h42.11.715,ratings,2022.1.1,Linux x86_64,74.97375918
-0.63670412,8.6727,1.11423221,3.6152,0,393,393,184,1,369_98db62a1bdabfd1bc551180da6658005b461585cd21614633cf76470_circblurint.jpg,2.190476,-0.03174604,circularblurringint,nipe10,2022-04-19_14h42.11.715,ratings,2022.1.1,Linux x86_64,74.97375918
-0.374531835,7.5203,-0.205992509,8.2524,0,394,394,154,1,355_00a76f54934d36566dd0e7b091b8aa6a56d8e6b32d349aa578a10b45_circblurint.jpg,2.910052,0.3439152,circularblurringint,nipe10,2022-04-19_14h42.11.715,ratings,2022.1.1,Linux x86_64,74.97375918
1.029962547,8.339,0.683520599,3.4252,0,395,395,180,1,369_98db62a1bdabfd1bc551180da6658005b461585cd21614633cf76470_orig.jpg,2.190476,-0.03174604,original,nipe10,2022-04-19_14h42.11.715,ratings,2022.1.1,Linux x86_64,74.97375918
0.262172285,3.5159,-0.346441948,2.7323,0,396,396,253,1,416_5eb54976bb41ce2a6d129ef985f792e716f010fb9b69b15f50f5d2db_bw.jpg,-2.58766,2.602972,blackwhite,nipe10,2022-04-19_14h42.11.715,ratings,2022.1.1,Linux x86_64,74.97375918
-0.449438202,4.4268,-0.421348315,4.9759,0,397,397,548,1,1010_06d15f44b979c086561137000ec070ba4cd479856f92840a7850b2bf_edges.jpg,0.189786,-0.189786,edges,nipe10,2022-04-19_14h42.11.715,ratings,2022.1.1,Linux x86_64,74.97375918
-2.06928839,2.3949,1.619850187,3.0949,0,398,398,245,1,411_adfd0d5782129756321ff671d0cfb712528504c66c863df11aabd1e7_circblurext.jpg,-3.392332,-1.369576,circularblurringext,nipe10,2022-04-19_14h42.11.715,ratings,2022.1.1,Linux x86_64,74.97375918
-1.779026217,1.7496,-0.028089888,2.3579,0,399,399,239,1,410_9633c4ff6e8888fcfca59a60ca86e9606d3e0736500a254101bdf295_circblurext.jpg,-0.3677892,2.981028,circularblurringext,nipe10,2022-04-19_14h42.11.715,ratings,2022.1.1,Linux x86_64,74.97375918
-1.292134831,2.0958,-0.065543071,2.9121,0,400,400,469,1,741_2b218fb015e3da83db73cacdb52e61e0c2534c1fe255bb1c5c74d47f_bw.jpg,3.140096,0.448584,blackwhite,nipe10,2022-04-19_14h42.11.715,ratings,2022.1.1,Linux x86_64,74.97375918
-1.666666667,2.126,1.020599251,2.7755,0,401,401,63,1,156_08e8cf8f04630e9213e610580de73f51572d1d589878648700bae4dc_blur.jpg,2.222224,0.0,blurring,nipe10,2022-04-19_14h42.11.715,ratings,2022.1.1,Linux x86_64,74.97375918
-2.162921348,1.0479,1.441947566,1.732,0,402,402,401,1,683_a004ad18331da968da5debdd15e1447dd7748750af0bc6c57b844200_circblurext.jpg,-2.91956,2.466524,circularblurringext,nipe10,2022-04-19_14h42.11.715,ratings,2022.1.1,Linux x86_64,74.97375918
-0.458801498,3.7171,-0.496254682,4.7161,0,403,403,10,1,28_6318543b74eeb646a1735477ebc023fdc9ac3849bc0db1957c272a26_circblurint.jpg,2.811244,-0.74584,circularblurringint,nipe10,2022-04-19_14h42.11.715,ratings,2022.1.1,Linux x86_64,74.97375918
-0.814606742,12.8541,0.327715356,13.7798,0,404,404,316,1,459_46e25de472bb056cb470716d30937415f7344bfc4354d6eb710d8c9f_circblurint.jpg,0.03174604,0.0,circularblurringint,nipe10,2022-04-19_14h42.11.715,ratings,2022.1.1,Linux x86_64,74.97375918
-0.720973783,3.4053,-0.514981273,3.9185,0,405,405,512,1,858_2f6539ee36aba48c38dc716d4f7c3ae93367d6ddf23ab41745d4172c_edges.jpg,0.0623832,0.176752,edges,nipe10,2022-04-19_14h42.11.715,ratings,2022.1.1,Linux x86_64,74.97375918
-1.479400749,1.3114,1.104868914,2.0772,0,406,406,13,1,39_2fafccaa4dc69045a05845f59c6b3cd2edcf7e0e0c108b24e553afe0_bw.jpg,2.022756,0.463548,blackwhite,nipe10,2022-04-19_14h42.11.715,ratings,2022.1.1,Linux x86_64,74.97375918
-1.301498127,3.1655,0.262172285,3.665,0,407,407,185,1,369_98db62a1bdabfd1bc551180da6658005b461585cd21614633cf76470_circblurext.jpg,2.190476,-0.03174604,circularblurringext,nipe10,2022-04-19_14h42.11.715,ratings,2022.1.1,Linux x86_64,74.97375918
-1.694756554,1.683,1.507490637,4.433,0,408,408,12,1,39_2fafccaa4dc69045a05845f59c6b3cd2edcf7e0e0c108b24e553afe0_orig.jpg,2.022756,0.463548,original,nipe10,2022-04-19_14h42.11.715,ratings,2022.1.1,Linux x86_64,74.97375918
-1.441947566,1.7271,-1.38576779,2.3767,0,409,409,102,1,284_cdcbd54fc995081ac95c8b2c37a19cebb341f61a8eb268cee1623492_orig.jpg,-1.015872,2.095236,original,nipe10,2022-04-19_14h42.11.715,ratings,2022.1.1,Linux x86_64,74.97375918
-0.983146067,5.0456,0.084269663,6.5055,0,410,410,56,1,137_0e6a04243c0a42a5e2528a2d181255ca2a4b7bd6e7978c5c2059c69f_edges.jpg,-0.95238,2.095236,edges,nipe10,2022-04-19_14h42.11.715,ratings,2022.1.1,Linux x86_64,74.97375918
-0.065543071,2.2006,-0.177902622,4.8414,0,411,411,82,1,242_85283f6935a89812ab229dcad9ba184529c9242ac3106d768ecf3ab3_circblurint.jpg,2.14918,-0.2949852,circularblurringint,nipe10,2022-04-19_14h42.11.715,ratings,2022.1.1,Linux x86_64,74.97375918
-1.619850187,1.3656,1.526217228,1.9502,0,412,412,455,1,716_2ab64478147184c4df720a52cf621875addc9007cb2967e4a9a88909_circblurext.jpg,2.428484,0.0,circularblurringext,nipe10,2022-04-19_14h42.11.715,ratings,2022.1.1,Linux x86_64,74.97375918
-0.730337079,5.1847,-0.720973783,5.7945,0,413,413,463,1,736_bb85db1bcda8eb34299aa5791ac65a0a7c343266eb2d6e6e328ec0e1_bw.jpg,3.650792,-0.03174604,blackwhite,nipe10,2022-04-19_14h42.11.715,ratings,2022.1.1,Linux x86_64,74.97375918
0.327715356,2.6996,0.149812734,4.4505,0,414,414,114,1,332_4d584229bdae2e1782f77f0e953e528f13c3dfa79b4b94736c0310fa_orig.jpg,3.157348,0.483092,original,nipe10,2022-04-19_14h42.11.715,ratings,2022.1.1,Linux x86_64,74.97375918
-2.209737828,1.612,1.27340824,2.1451,0,415,415,357,1,500_3b520c7f352afa1a9f8c07e56cc0588cdc04d25ff6e7b602b5e280cb_blur.jpg,-0.8328,3.11766,blurring,nipe10,2022-04-19_14h42.11.715,ratings,2022.1.1,Linux x86_64,74.97375918
0.037453184,7.7155,-0.074906367,7.2155,0,416,416,439,1,700_59cb565f134f1afd066d7b6d936c6511b7cb76de0e9cbb5ce15124ad_bw.jpg,0.0,0.0,blackwhite,nipe10,2022-04-19_14h42.11.715,ratings,2022.1.1,Linux x86_64,74.97375918
-2.153558052,1.2485,1.451310861,1.866,0,417,417,543,1,1005_b980c0747d20935bc63cc27a9e05ce2ff5bae98f859872ec48edd7f5_blur.jpg,3.428572,-0.476192,blurring,nipe10,2022-04-19_14h42.11.715,ratings,2022.1.1,Linux x86_64,74.97375918
0.730337079,4.6892,0.786516854,5.4649,0,418,418,174,1,368_6507b94d7d0199f14efd3706db30c9c44b96085f84e9cc7792e3e0ae_orig.jpg,1.959544,0.400336,original,nipe10,2022-04-19_14h42.11.715,ratings,2022.1.1,Linux x86_64,74.97375918
-0.617977528,11.7596,-0.411985019,12.3003,0,419,419,169,1,365_45a719cabbc9aa308c4fcb30d529489c6966ac4073874af84f665c61_bw.jpg,2.507936,-1.968252,blackwhite,nipe10,2022-04-19_14h42.11.715,ratings,2022.1.1,Linux x86_64,74.97375918
-1.5917603,4.3302,0.449438202,2.5969,0,420,420,22,1,48_2cc936b2483ab2944c9158e163342b874ef6c1492fd8fca08c0e096e_circblurint.jpg,-1.264224,-0.779604,circularblurringint,nipe10,2022-04-19_14h42.11.715,ratings,2022.1.1,Linux x86_64,74.97375918
-1.676029963,2.4819,0.79588015,3.4152,0,421,421,510,1,858_2f6539ee36aba48c38dc716d4f7c3ae93367d6ddf23ab41745d4172c_orig.jpg,0.0623832,0.176752,original,nipe10,2022-04-19_14h42.11.715,ratings,2022.1.1,Linux x86_64,74.97375918
-1.301498127,1.1169,-1.104868914,2.3002,0,422,422,335,1,482_a1cd28915c5044c018195ab0fff10dcc95e385246b045a7cd4463ff7_circblurext.jpg,-3.361852,-1.555612,circularblurringext,nipe10,2022-04-19_14h42.11.715,ratings,2022.1.1,Linux x86_64,74.97375918
-1.320224719,1.3801,0.852059925,1.8457,0,423,423,524,1,877_cab3efed0c9ff4552037df6c1ea4ea9713f915c94592a14dbf2799da_edges.jpg,3.174604,0.3174604,edges,nipe10,2022-04-19_14h42.11.715,ratings,2022.1.1,Linux x86_64,74.97375918
-0.543071161,2.5652,-0.552434457,3.1657,0,424,424,206,1,381_5935a9f9796adce2f1539af6c75bcdc0c80d847a2ce9b77cf59b7672_edges.jpg,-1.327432,-0.442476,edges,nipe10,2022-04-19_14h42.11.715,ratings,2022.1.1,Linux x86_64,74.97375918
-1.235955056,1.7144,0.561797753,2.2968,0,425,425,419,1,692_7d7eaf20e6de8956f0fca7500ace97a8599aa8b605a7d690cdb28724_circblurext.jpg,-2.063492,-1.26984,circularblurringext,nipe10,2022-04-19_14h42.11.715,ratings,2022.1.1,Linux x86_64,74.97375918
0.271535581,2.096,-0.374531835,5.3457,0,426,426,302,1,453_54f106fd1d4b65fa4aa347407127fc30d49f791e81aee3a0bbe44489_edges.jpg,2.222224,0.0,edges,nipe10,2022-04-19_14h42.11.715,ratings,2022.1.1,Linux x86_64,74.97375918
-0.524344569,2.8335,-0.47752809,3.3824,0,427,427,451,1,716_2ab64478147184c4df720a52cf621875addc9007cb2967e4a9a88909_bw.jpg,2.428484,0.0,blackwhite,nipe10,2022-04-19_14h42.11.715,ratings,2022.1.1,Linux x86_64,74.97375918
-1.5917603,1.3428,0.983146067,3.6425,0,428,428,417,1,692_7d7eaf20e6de8956f0fca7500ace97a8599aa8b605a7d690cdb28724_blur.jpg,-2.063492,-1.26984,blurring,nipe10,2022-04-19_14h42.11.715,ratings,2022.1.1,Linux x86_64,74.97375918
-0.056179775,9.0217,-0.720973783,10.2206,0,429,429,595,1,1239_cee00457f4cfb76a407b12fd5ad714d440a4614c1e5467ee16caf618_bw.jpg,-0.03174604,0.190476,blackwhite,nipe10,2022-04-19_14h42.11.715,ratings,2022.1.1,Linux x86_64,74.97375918
-1.694756554,6.2999,0.964419476,7.2876,0,430,430,76,1,236_f645730e1eb06155418c9a571329cc7fa320654fcaaedf1048b5cc11_circblurint.jpg,2.253968,0.0,circularblurringint,nipe10,2022-04-19_14h42.11.715,ratings,2022.1.1,Linux x86_64,74.97375918
-0.074906367,7.366,-0.346441948,8.0991,0,431,431,5,1,13_771f4fcf0a212d25d6a78565e7f34cc5ddd823e7afbdc77ef063326e_circblurext.jpg,2.190476,0.0,circularblurringext,nipe10,2022-04-19_14h42.11.715,ratings,2022.1.1,Linux x86_64,74.97375918
