valence_slider.response,valence_slider.rt,arousal_slider.response,arousal_slider.rt,trials.thisRepN,trials.thisTrialN,trials.thisN,trials.thisIndex,trials.ran,img_name,vm,am,manipulation,participant,date,expName,psychopyVersion,OS,frameRate
1.989513109,7.724,1.390262172,15.421,0,0,0,463,1,736_bb85db1bcda8eb34299aa5791ac65a0a7c343266eb2d6e6e328ec0e1_bw.jpg,3.650792,-0.03174604,blackwhite,soze31,2022-04-06_10h55.41.541,ratings,2022.1.1,Win32,60.0240096
-1.198501873,7.803,1.965543071,10.84,0,1,1,17,1,39_2fafccaa4dc69045a05845f59c6b3cd2edcf7e0e0c108b24e553afe0_circblurext.jpg,2.022756,0.463548,circularblurringext,soze31,2022-04-06_10h55.41.541,ratings,2022.1.1,Win32,60.0240096
0.227715356,10.812,1.234456929,15.337,0,2,2,207,1,381_5935a9f9796adce2f1539af6c75bcdc0c80d847a2ce9b77cf59b7672_blur.jpg,-1.327432,-0.442476,blurring,soze31,2022-04-06_10h55.41.541,ratings,2022.1.1,Win32,60.0240096
2.229213483,6.508,-2.564794007,8.361,0,3,3,227,1,403_57ac47f43882fc031a6067b1a388c0b2cbe8708dcbd2ff1019932eff_circblurext.jpg,-3.333332,-1.396824,circularblurringext,soze31,2022-04-06_10h55.41.541,ratings,2022.1.1,Win32,60.0240096
3.463670412,3.337,1.31835206,10.629,0,4,4,52,1,112_b6a4ce721c2e42943d7d8b168751d74cd2f372b1cd4fed5a4404faec_circblurint.jpg,2.107036,0.505688,circularblurringint,soze31,2022-04-06_10h55.41.541,ratings,2022.1.1,Win32,60.0240096
3.607490637,2.529,-3.631460674,5.729,0,5,5,75,1,236_f645730e1eb06155418c9a571329cc7fa320654fcaaedf1048b5cc11_blur.jpg,2.253968,0.0,blurring,soze31,2022-04-06_10h55.41.541,ratings,2022.1.1,Win32,60.0240096
-1.905617978,4.363,-0.898876404,12.609,0,6,6,575,1,1039_d64da8480fc6e94dcdc513237d600570ae0b9fe48795ac6a8b2d29a7_circblurext.jpg,-2.507936,-1.142856,circularblurringext,soze31,2022-04-06_10h55.41.541,ratings,2022.1.1,Win32,60.0240096
3.787265918,2.094,1.941573034,7.83,0,7,7,177,1,368_6507b94d7d0199f14efd3706db30c9c44b96085f84e9cc7792e3e0ae_blur.jpg,1.959544,0.400336,blurring,soze31,2022-04-06_10h55.41.541,ratings,2022.1.1,Win32,60.0240096
-1.150561798,7.11,1.378277154,10.069,0,8,8,271,1,434_ba36d91204d7e578001f6a545d7501e65d209554def5a3c8b7583825_bw.jpg,-3.523808,1.428572,blackwhite,soze31,2022-04-06_10h55.41.541,ratings,2022.1.1,Win32,60.0240096
-0.826966292,10.021,0.263670412,20.554,0,9,9,211,1,394_8e3a0cb945144d53bd1ace04b6256237ed9dcbbd9cb83f8a4886b0e6_bw.jpg,-2.593884,2.651956,blackwhite,soze31,2022-04-06_10h55.41.541,ratings,2022.1.1,Win32,60.0240096
1.210486891,6.232,-1.078651685,10.049,0,10,10,376,1,620_9674719009d75dcfeaed7f15932c43e1fd1af5e25d47b8aadd61efe2_circblurint.jpg,-0.561364,1.142084,circularblurringint,soze31,2022-04-06_10h55.41.541,ratings,2022.1.1,Win32,60.0240096
-1.941573034,4.617,3.463670412,6.277,0,11,11,492,1,824_b1d91cc824ce0d3d383d3147da88d3d6dbaf6be918bab79e3ec8f501_orig.jpg,-3.645176,-1.432784,original,soze31,2022-04-06_10h55.41.541,ratings,2022.1.1,Win32,60.0240096
-1.893632959,10.808,2.253183521,6.385,0,12,12,281,1,440_9bf7e8609729bf888835168834da6c3ff30b75d0d4f36e2ee6918bcc_circblurext.jpg,-2.284164,2.710028,circularblurringext,soze31,2022-04-06_10h55.41.541,ratings,2022.1.1,Win32,60.0240096
3.176029963,3.023,2.456928839,4.286,0,13,13,592,1,1228_557412d34d6a70b7c5d222e030aa485b351a4574e8ba1a3112d1d13d_circblurint.jpg,2.137444,0.703464,circularblurringint,soze31,2022-04-06_10h55.41.541,ratings,2022.1.1,Win32,60.0240096
2.528838951,7.894,-4,5.463,0,14,14,548,1,1010_06d15f44b979c086561137000ec070ba4cd479856f92840a7850b2bf_edges.jpg,0.189786,-0.189786,edges,soze31,2022-04-06_10h55.41.541,ratings,2022.1.1,Win32,60.0240096
-1.869662921,2.592,3.499625468,3.875,0,15,15,334,1,482_a1cd28915c5044c018195ab0fff10dcc95e385246b045a7cd4463ff7_circblurint.jpg,-3.361852,-1.555612,circularblurringint,soze31,2022-04-06_10h55.41.541,ratings,2022.1.1,Win32,60.0240096
-0.886891386,35.519,-2.205243446,41.724,0,16,16,369,1,616_05a637f5281666f53d4e2ef69351485fc21d629b37ee2006b2076eb6_blur.jpg,-2.380952,-0.832364,blurring,soze31,2022-04-06_10h55.41.541,ratings,2022.1.1,Win32,60.0240096
0.323595506,3.377,-2.564794007,7.544,0,17,17,237,1,410_9633c4ff6e8888fcfca59a60ca86e9606d3e0736500a254101bdf295_blur.jpg,-0.3677892,2.981028,blurring,soze31,2022-04-06_10h55.41.541,ratings,2022.1.1,Win32,60.0240096
1.737827715,28.452,-1.582022472,13.845,0,18,18,26,1,59_8568373b727f29d67ba6ce4c360dd918c8b08b13495fca56bdda5e82_edges.jpg,2.064896,0.505688,edges,soze31,2022-04-06_10h55.41.541,ratings,2022.1.1,Win32,60.0240096
1.605992509,4.298,-1.486142322,5.883,0,19,19,257,1,416_5eb54976bb41ce2a6d129ef985f792e716f010fb9b69b15f50f5d2db_circblurext.jpg,-2.58766,2.602972,circularblurringext,soze31,2022-04-06_10h55.41.541,ratings,2022.1.1,Win32,60.0240096
-1.054681648,7.429,-1.162546816,14.101,0,20,20,523,1,877_cab3efed0c9ff4552037df6c1ea4ea9713f915c94592a14dbf2799da_bw.jpg,3.174604,0.3174604,blackwhite,soze31,2022-04-06_10h55.41.541,ratings,2022.1.1,Win32,60.0240096
3.547565543,2.226,3.847191011,4.127,0,21,21,66,1,172_c641c6c56ca6b594b773084e1363c852abdb65f988d7ff802ee503f2_orig.jpg,0.379572,0.01725328,original,soze31,2022-04-06_10h55.41.541,ratings,2022.1.1,Win32,60.0240096
2.061423221,32.045,1.641947566,34.755,0,22,22,150,1,355_00a76f54934d36566dd0e7b091b8aa6a56d8e6b32d349aa578a10b45_orig.jpg,2.910052,0.3439152,original,soze31,2022-04-06_10h55.41.541,ratings,2022.1.1,Win32,60.0240096
1.773782772,17.326,1.51011236,19.971,0,23,23,453,1,716_2ab64478147184c4df720a52cf621875addc9007cb2967e4a9a88909_blur.jpg,2.428484,0.0,blurring,soze31,2022-04-06_10h55.41.541,ratings,2022.1.1,Win32,60.0240096
-1.042696629,65.802,-0.551310861,56.215,0,24,24,64,1,156_08e8cf8f04630e9213e610580de73f51572d1d589878648700bae4dc_circblurint.jpg,2.222224,0.0,circularblurringint,soze31,2022-04-06_10h55.41.541,ratings,2022.1.1,Win32,60.0240096
-2.552808989,15.676,2.277153558,8.756,0,25,25,418,1,692_7d7eaf20e6de8956f0fca7500ace97a8599aa8b605a7d690cdb28724_circblurint.jpg,-2.063492,-1.26984,circularblurringint,soze31,2022-04-06_10h55.41.541,ratings,2022.1.1,Win32,60.0240096
-0.910861423,9.572,-2.696629213,5.719,0,26,26,440,1,700_59cb565f134f1afd066d7b6d936c6511b7cb76de0e9cbb5ce15124ad_edges.jpg,0.0,0.0,edges,soze31,2022-04-06_10h55.41.541,ratings,2022.1.1,Win32,60.0240096
1.22247191,2.394,-2.109363296,4.228,0,27,27,224,1,403_57ac47f43882fc031a6067b1a388c0b2cbe8708dcbd2ff1019932eff_edges.jpg,-3.333332,-1.396824,edges,soze31,2022-04-06_10h55.41.541,ratings,2022.1.1,Win32,60.0240096
2.852434457,2.747,-0.994756554,8.393,0,28,28,383,1,640_0ddb4981a5f5842ed5b4f7ef941be53779189df5e718b1fc5475ad80_circblurext.jpg,2.571428,-1.873016,circularblurringext,soze31,2022-04-06_10h55.41.541,ratings,2022.1.1,Win32,60.0240096
-0.623220974,3.774,3.247940075,4.924,0,29,29,142,1,353_44e285740cb41818482ac93fc5fbd72c18029444a1d7506c9fc053e7_circblurint.jpg,-3.232676,-0.87108,circularblurringint,soze31,2022-04-06_10h55.41.541,ratings,2022.1.1,Win32,60.0240096
3.607490637,3.841,-0.874906367,6.039,0,30,30,558,1,1022_cf035e583d41a856836f8b0ae314ecbe79dffd9e40ef6a08cc26028f_orig.jpg,-0.2516452,3.05846,original,soze31,2022-04-06_10h55.41.541,ratings,2022.1.1,Win32,60.0240096
-3.044194757,6.012,-3.0082397,3.399,0,31,31,310,1,455_34a7d8167619d110206c369e3f7dce8a3f99db763a9d8e2b956501d3_circblurint.jpg,-2.526412,-0.3827896,circularblurringint,soze31,2022-04-06_10h55.41.541,ratings,2022.1.1,Win32,60.0240096
-1.582022472,8.205,-2.600749064,6.134,0,32,32,238,1,410_9633c4ff6e8888fcfca59a60ca86e9606d3e0736500a254101bdf295_circblurint.jpg,-0.3677892,2.981028,circularblurringint,soze31,2022-04-06_10h55.41.541,ratings,2022.1.1,Win32,60.0240096
-1.198501873,16.061,1.749812734,18.713,0,33,33,522,1,877_cab3efed0c9ff4552037df6c1ea4ea9713f915c94592a14dbf2799da_orig.jpg,3.174604,0.3174604,original,soze31,2022-04-06_10h55.41.541,ratings,2022.1.1,Win32,60.0240096
3.3917603,4.182,2.313108614,5.626,0,34,34,567,1,1037_e2eb929a6de79a63ce6cfe5321fcb74a203b134e4094932d90b01d99_blur.jpg,2.651956,0.0,blurring,soze31,2022-04-06_10h55.41.541,ratings,2022.1.1,Win32,60.0240096
2.492883895,5.165,3.787265918,2.552,0,35,35,192,1,379_eeaa6d9bf5a4ef205dc48bc505cf3a7f24ea86e99af9b371e03602a7_orig.jpg,-0.3926308,2.88936,original,soze31,2022-04-06_10h55.41.541,ratings,2022.1.1,Win32,60.0240096
3.367790262,1.485,3.715355805,2.473,0,36,36,19,1,48_2cc936b2483ab2944c9158e163342b874ef6c1492fd8fca08c0e096e_bw.jpg,-1.264224,-0.779604,blackwhite,soze31,2022-04-06_10h55.41.541,ratings,2022.1.1,Win32,60.0240096
3.631460674,2.801,2.660674157,4.156,0,37,37,22,1,48_2cc936b2483ab2944c9158e163342b874ef6c1492fd8fca08c0e096e_circblurint.jpg,-1.264224,-0.779604,circularblurringint,soze31,2022-04-06_10h55.41.541,ratings,2022.1.1,Win32,60.0240096
-1.174531835,74.096,-0.802996255,16.231,0,38,38,556,1,1014_a5c212ca979d482cf94c2db7697aba75620391a64b030ab7ad2bbecf_circblurint.jpg,-3.174604,-1.374372,circularblurringint,soze31,2022-04-06_10h55.41.541,ratings,2022.1.1,Win32,60.0240096
1.570037453,6.657,1.150561798,7.803,0,39,39,83,1,242_85283f6935a89812ab229dcad9ba184529c9242ac3106d768ecf3ab3_circblurext.jpg,2.14918,-0.2949852,circularblurringext,soze31,2022-04-06_10h55.41.541,ratings,2022.1.1,Win32,60.0240096
2.229213483,6.226,1.534082397,7.944,0,40,40,216,1,396_208259ea431d47bb7f3946213eb099834eb119756ce304ad473d4d9f_orig.jpg,2.857144,-0.3809524,original,soze31,2022-04-06_10h55.41.541,ratings,2022.1.1,Win32,60.0240096
-1.51011236,17.289,1.941573034,14.98,0,41,41,514,1,858_2f6539ee36aba48c38dc716d4f7c3ae93367d6ddf23ab41745d4172c_circblurint.jpg,0.0623832,0.176752,circularblurringint,soze31,2022-04-06_10h55.41.541,ratings,2022.1.1,Win32,60.0240096
-3.092134831,4.203,3.331835206,3.421,0,42,42,84,1,243_beddb302dcb21071d88c8d2cab07002050d36b3001ef28f89389fa56_orig.jpg,-0.3450656,-0.2070392,original,soze31,2022-04-06_10h55.41.541,ratings,2022.1.1,Win32,60.0240096
-0.743071161,7.394,-3.032209738,5.046,0,43,43,356,1,500_3b520c7f352afa1a9f8c07e56cc0588cdc04d25ff6e7b602b5e280cb_edges.jpg,-0.8328,3.11766,edges,soze31,2022-04-06_10h55.41.541,ratings,2022.1.1,Win32,60.0240096
3.715355805,3.359,2.996254682,5.046,0,44,44,564,1,1037_e2eb929a6de79a63ce6cfe5321fcb74a203b134e4094932d90b01d99_orig.jpg,2.651956,0.0,original,soze31,2022-04-06_10h55.41.541,ratings,2022.1.1,Win32,60.0240096
2.73258427,2.899,-3.463670412,2.108,0,45,45,44,1,92_5d20d78a8e57e628c6930676473a4e0a485e715841efd6286c660020_edges.jpg,2.126984,0.0,edges,soze31,2022-04-06_10h55.41.541,ratings,2022.1.1,Win32,60.0240096
-0.407490637,5.019,-3.3917603,6.271,0,46,46,314,1,459_46e25de472bb056cb470716d30937415f7344bfc4354d6eb710d8c9f_edges.jpg,0.03174604,0.0,edges,soze31,2022-04-06_10h55.41.541,ratings,2022.1.1,Win32,60.0240096
3.475655431,4.415,2.73258427,8.492,0,47,47,546,1,1010_06d15f44b979c086561137000ec070ba4cd479856f92840a7850b2bf_orig.jpg,0.189786,-0.189786,original,soze31,2022-04-06_10h55.41.541,ratings,2022.1.1,Win32,60.0240096
1.474157303,5.577,1.869662921,9.988,0,48,48,545,1,1005_b980c0747d20935bc63cc27a9e05ce2ff5bae98f859872ec48edd7f5_circblurext.jpg,3.428572,-0.476192,circularblurringext,soze31,2022-04-06_10h55.41.541,ratings,2022.1.1,Win32,60.0240096
-1.102621723,4.245,-3.811235955,7.173,0,49,49,398,1,683_a004ad18331da968da5debdd15e1447dd7748750af0bc6c57b844200_edges.jpg,-2.91956,2.466524,edges,soze31,2022-04-06_10h55.41.541,ratings,2022.1.1,Win32,60.0240096
-1.833707865,8.036,1.725842697,6.272,0,50,50,113,1,293_3dfdfafc0c6a54b2da7453750ac281f7718c0b3337b0a74c4563d6bd_circblurext.jpg,-2.574524,2.632596,circularblurringext,soze31,2022-04-06_10h55.41.541,ratings,2022.1.1,Win32,60.0240096
1.498127341,9.503,-0.75505618,22.794,0,51,51,106,1,284_cdcbd54fc995081ac95c8b2c37a19cebb341f61a8eb268cee1623492_circblurint.jpg,-1.015872,2.095236,circularblurringint,soze31,2022-04-06_10h55.41.541,ratings,2022.1.1,Win32,60.0240096
-1.294382022,10.206,3.715355805,8.165,0,52,52,167,1,361_b5541309527dc3c2422f45a95ebb0ed32005e6fe10d0489a1ff1fbdc_circblurext.jpg,-3.987612,-0.2516452,circularblurringext,soze31,2022-04-06_10h55.41.541,ratings,2022.1.1,Win32,60.0240096
-2.864419476,4.666,3.95505618,2.442,0,53,53,528,1,915_dc9fd40a3b5d64a180833a7bac86e7556c24f681f473fe255e41f936_orig.jpg,-3.09294,-0.918696,original,soze31,2022-04-06_10h55.41.541,ratings,2022.1.1,Win32,60.0240096
2.840449438,3.841,-4,1.864,0,54,54,566,1,1037_e2eb929a6de79a63ce6cfe5321fcb74a203b134e4094932d90b01d99_edges.jpg,2.651956,0.0,edges,soze31,2022-04-06_10h55.41.541,ratings,2022.1.1,Win32,60.0240096
-1.114606742,6.794,3.619475655,4.846,0,55,55,399,1,683_a004ad18331da968da5debdd15e1447dd7748750af0bc6c57b844200_blur.jpg,-2.91956,2.466524,blurring,soze31,2022-04-06_10h55.41.541,ratings,2022.1.1,Win32,60.0240096
1.522097378,28.762,1.761797753,30.207,0,56,56,441,1,700_59cb565f134f1afd066d7b6d936c6511b7cb76de0e9cbb5ce15124ad_blur.jpg,0.0,0.0,blurring,soze31,2022-04-06_10h55.41.541,ratings,2022.1.1,Win32,60.0240096
1.893632959,8.182,0.371535581,10.628,0,57,57,5,1,13_771f4fcf0a212d25d6a78565e7f34cc5ddd823e7afbdc77ef063326e_circblurext.jpg,2.190476,0.0,circularblurringext,soze31,2022-04-06_10h55.41.541,ratings,2022.1.1,Win32,60.0240096
-2.157303371,11.138,2.876404494,9.125,0,58,58,294,1,449_9c1e990a3480e5b51430fe76b0188e69ba2468fd6a866b88b2d0dd75_orig.jpg,0.095238,0.03174604,original,soze31,2022-04-06_10h55.41.541,ratings,2022.1.1,Win32,60.0240096
-2.16928839,6.881,1.641947566,10.128,0,59,59,436,1,694_f80f33613b268beffd6c044537cf3b44a84683d6e889bc37b8e9c34b_circblurint.jpg,-0.3785616,3.34728,circularblurringint,soze31,2022-04-06_10h55.41.541,ratings,2022.1.1,Win32,60.0240096
2.241198502,3.36,-0.802996255,16.256,0,60,60,339,1,492_a1a4d288d3bc486c83c3b6a835c42891989f5ba781633932298a7676_blur.jpg,3.406892,-0.44522,blurring,soze31,2022-04-06_10h55.41.541,ratings,2022.1.1,Win32,60.0240096
1.594007491,5.352,-1.665917603,3.867,0,61,61,413,1,687_e3b018945792a574962235c88c553b7c318c75eec2596478e8a7b877_circblurext.jpg,3.63918,-0.42586,circularblurringext,soze31,2022-04-06_10h55.41.541,ratings,2022.1.1,Win32,60.0240096
-1.713857678,8.151,1.88164794,12.852,0,62,62,250,1,414_0187bdf7007109b487865b6a9d388997a6817acf052a6a7cdd5b39d9_circblurint.jpg,-2.786708,-1.133056,circularblurringint,soze31,2022-04-06_10h55.41.541,ratings,2022.1.1,Win32,60.0240096
-1.162546816,58.041,1.857677903,59.344,0,63,63,346,1,494_5c6c3b85a2734a43c24bfe337d42ffcc82b7347227804d01c784cef4_circblurint.jpg,0.03871468,0.0,circularblurringint,soze31,2022-04-06_10h55.41.541,ratings,2022.1.1,Win32,60.0240096
2.600749064,6.408,1.761797753,10.525,0,64,64,481,1,759_95e1c46ed9a337414d5c8eada8fa8b9632e18751f5ce6ed587806e91_bw.jpg,2.126984,0.0,blackwhite,soze31,2022-04-06_10h55.41.541,ratings,2022.1.1,Win32,60.0240096
-0.802996255,6.918,-3.223970037,4.315,0,65,65,542,1,1005_b980c0747d20935bc63cc27a9e05ce2ff5bae98f859872ec48edd7f5_edges.jpg,3.428572,-0.476192,edges,soze31,2022-04-06_10h55.41.541,ratings,2022.1.1,Win32,60.0240096
1.929588015,4.502,1.665917603,7.125,0,66,66,231,1,407_578d31d32e806706dde2563213f130b90e621abfed0e47ecabd85d27_blur.jpg,3.5873,-0.444444,blurring,soze31,2022-04-06_10h55.41.541,ratings,2022.1.1,Win32,60.0240096
1.737827715,5.282,1.294382022,10.327,0,67,67,395,1,663_aaf52107fe3a86392530d88b34e86f9d2b6820714cad98d1e3c2cb67_circblurext.jpg,2.58766,0.0918696,circularblurringext,soze31,2022-04-06_10h55.41.541,ratings,2022.1.1,Win32,60.0240096
-0.731086142,7.931,2.924344569,10.955,0,68,68,396,1,683_a004ad18331da968da5debdd15e1447dd7748750af0bc6c57b844200_orig.jpg,-2.91956,2.466524,original,soze31,2022-04-06_10h55.41.541,ratings,2022.1.1,Win32,60.0240096
2.564794007,4.477,-1.857677903,11.657,0,69,69,379,1,640_0ddb4981a5f5842ed5b4f7ef941be53779189df5e718b1fc5475ad80_bw.jpg,2.571428,-1.873016,blackwhite,soze31,2022-04-06_10h55.41.541,ratings,2022.1.1,Win32,60.0240096
-0.695131086,5.475,-3.823220974,1.691,0,70,70,554,1,1014_a5c212ca979d482cf94c2db7697aba75620391a64b030ab7ad2bbecf_edges.jpg,-3.174604,-1.374372,edges,soze31,2022-04-06_10h55.41.541,ratings,2022.1.1,Win32,60.0240096
-1.665917603,5.291,2.54082397,4.087,0,71,71,259,1,416_8a1f874e0057d67a4e6955865ba88b2d8ce2c8b4469589307687a723_bw.jpg,-1.753336,3.088264,blackwhite,soze31,2022-04-06_10h55.41.541,ratings,2022.1.1,Win32,60.0240096
-0.779026217,339.888,2.576779026,343.06,0,72,72,474,1,748_e519892faa7c772a0afaf9eeff36cf0e411574027ab3d9aa4947a048_orig.jpg,-1.813112,3.307432,original,soze31,2022-04-06_10h55.41.541,ratings,2022.1.1,Win32,60.0240096
-0.886891386,3.372,-0.838951311,13.956,0,73,73,544,1,1005_b980c0747d20935bc63cc27a9e05ce2ff5bae98f859872ec48edd7f5_circblurint.jpg,3.428572,-0.476192,circularblurringint,soze31,2022-04-06_10h55.41.541,ratings,2022.1.1,Win32,60.0240096
-2.576779026,5.219,3.847191011,3.785,0,74,74,88,1,243_beddb302dcb21071d88c8d2cab07002050d36b3001ef28f89389fa56_circblurint.jpg,-0.3450656,-0.2070392,circularblurringint,soze31,2022-04-06_10h55.41.541,ratings,2022.1.1,Win32,60.0240096
2.876404494,9.094,2.744569288,17.054,0,75,75,595,1,1239_cee00457f4cfb76a407b12fd5ad714d440a4614c1e5467ee16caf618_bw.jpg,-0.03174604,0.190476,blackwhite,soze31,2022-04-06_10h55.41.541,ratings,2022.1.1,Win32,60.0240096
-0.970786517,5.997,1.941573034,3.918,0,76,76,135,1,349_8809a67686d34844c915d7700e2ea72ad1c02ae232ae0d3cc0e458d4_blur.jpg,-3.619048,-0.2857144,blurring,soze31,2022-04-06_10h55.41.541,ratings,2022.1.1,Win32,60.0240096
-0.371535581,12.136,-1.090636704,8.85,0,77,77,423,1,692_e3e3bf88684fbbcdb9849a4147f9e2fcd39b0f083554a829aca4e9fa_blur.jpg,-0.44522,3.135888,blurring,soze31,2022-04-06_10h55.41.541,ratings,2022.1.1,Win32,60.0240096
-1.150561798,18.423,0.407490637,8.265,0,78,78,107,1,284_cdcbd54fc995081ac95c8b2c37a19cebb341f61a8eb268cee1623492_circblurext.jpg,-1.015872,2.095236,circularblurringext,soze31,2022-04-06_10h55.41.541,ratings,2022.1.1,Win32,60.0240096
1.749812734,3.119,-3.140074906,1.783,0,79,79,50,1,112_b6a4ce721c2e42943d7d8b168751d74cd2f372b1cd4fed5a4404faec_edges.jpg,2.107036,0.505688,edges,soze31,2022-04-06_10h55.41.541,ratings,2022.1.1,Win32,60.0240096
1.438202247,14.543,-1.090636704,11.919,0,80,80,543,1,1005_b980c0747d20935bc63cc27a9e05ce2ff5bae98f859872ec48edd7f5_blur.jpg,3.428572,-0.476192,blurring,soze31,2022-04-06_10h55.41.541,ratings,2022.1.1,Win32,60.0240096
0.335580524,4.096,-3.056179775,3.104,0,81,81,38,1,82_43f4d5aec7c2e5bd495473f6708a0f2d47c9fe34e1fe9436646cb036_edges.jpg,2.022756,0.505688,edges,soze31,2022-04-06_10h55.41.541,ratings,2022.1.1,Win32,60.0240096
1.41423221,8.203,-0.886891386,4.533,0,82,82,489,1,818_877aae033c31e3bbca4486321a5307f87cf53c576c546462d3daf194_blur.jpg,-1.277584,0.619436,blurring,soze31,2022-04-06_10h55.41.541,ratings,2022.1.1,Win32,60.0240096
1.821722846,8.806,-0.731086142,11.79,0,83,83,47,1,92_5d20d78a8e57e628c6930676473a4e0a485e715841efd6286c660020_circblurext.jpg,2.126984,0.0,circularblurringext,soze31,2022-04-06_10h55.41.541,ratings,2022.1.1,Win32,60.0240096
0.227715356,3.621,-2.385018727,2.005,0,84,84,140,1,353_44e285740cb41818482ac93fc5fbd72c18029444a1d7506c9fc053e7_edges.jpg,-3.232676,-0.87108,edges,soze31,2022-04-06_10h55.41.541,ratings,2022.1.1,Win32,60.0240096
2.420973783,6.101,-0.898876404,8.172,0,85,85,527,1,877_cab3efed0c9ff4552037df6c1ea4ea9713f915c94592a14dbf2799da_circblurext.jpg,3.174604,0.3174604,circularblurringext,soze31,2022-04-06_10h55.41.541,ratings,2022.1.1,Win32,60.0240096
1.51011236,5.666,-1.31835206,9.904,0,86,86,472,1,741_2b218fb015e3da83db73cacdb52e61e0c2534c1fe255bb1c5c74d47f_circblurint.jpg,3.140096,0.448584,circularblurringint,soze31,2022-04-06_10h55.41.541,ratings,2022.1.1,Win32,60.0240096
1.68988764,2.557,-2.73258427,1.821,0,87,87,266,1,431_ab5a1dbbe9292ac7f74e276cdabcd372e2c1f852ff34bf7cc6646ef8_edges.jpg,3.102584,0.354334,edges,soze31,2022-04-06_10h55.41.541,ratings,2022.1.1,Win32,60.0240096
1.809737828,9.067,1.31835206,14.828,0,88,88,217,1,396_208259ea431d47bb7f3946213eb099834eb119756ce304ad473d4d9f_bw.jpg,2.857144,-0.3809524,blackwhite,soze31,2022-04-06_10h55.41.541,ratings,2022.1.1,Win32,60.0240096
-1.306367041,2.425,2.588764045,8.537,0,89,89,511,1,858_2f6539ee36aba48c38dc716d4f7c3ae93367d6ddf23ab41745d4172c_bw.jpg,0.0623832,0.176752,blackwhite,soze31,2022-04-06_10h55.41.541,ratings,2022.1.1,Win32,60.0240096
1.354307116,13.352,-3.10411985,1.749,0,90,90,578,1,1061_665178b9cb0bc869cc2e2b68def4838db04e66f9531098fb75875a09_edges.jpg,0.3492064,-0.3174604,edges,soze31,2022-04-06_10h55.41.541,ratings,2022.1.1,Win32,60.0240096
1.258426966,7.403,1.845692884,11.1,0,91,91,312,1,459_46e25de472bb056cb470716d30937415f7344bfc4354d6eb710d8c9f_orig.jpg,0.03174604,0.0,original,soze31,2022-04-06_10h55.41.541,ratings,2022.1.1,Win32,60.0240096
2.792509363,6.062,2.564794007,8.087,0,92,92,42,1,92_5d20d78a8e57e628c6930676473a4e0a485e715841efd6286c660020_orig.jpg,2.126984,0.0,original,soze31,2022-04-06_10h55.41.541,ratings,2022.1.1,Win32,60.0240096
3.66741573,2.263,3.871161049,5.337,0,93,93,174,1,368_6507b94d7d0199f14efd3706db30c9c44b96085f84e9cc7792e3e0ae_orig.jpg,1.959544,0.400336,original,soze31,2022-04-06_10h55.41.541,ratings,2022.1.1,Win32,60.0240096
2.948314607,2.455,2.289138577,3.601,0,94,94,31,1,60_ad52063167538de24f94d7dfd04808cb94cf8f426c40871d2f126505_bw.jpg,2.158732,0.0,blackwhite,soze31,2022-04-06_10h55.41.541,ratings,2022.1.1,Win32,60.0240096
4,3.751,3.895131086,2.404,0,95,95,115,1,332_4d584229bdae2e1782f77f0e953e528f13c3dfa79b4b94736c0310fa_bw.jpg,3.157348,0.483092,blackwhite,soze31,2022-04-06_10h55.41.541,ratings,2022.1.1,Win32,60.0240096
2.085393258,1.667,2.492883895,4.299,0,96,96,502,1,854_081a8409e4d6d10923b2dedcc16a3fca405fcd602e55a20d84cac69d_circblurint.jpg,3.088264,1.21538,circularblurringint,soze31,2022-04-06_10h55.41.541,ratings,2022.1.1,Win32,60.0240096
2.900374532,3.189,1.761797753,6.236,0,97,97,580,1,1061_665178b9cb0bc869cc2e2b68def4838db04e66f9531098fb75875a09_circblurint.jpg,0.3492064,-0.3174604,circularblurringint,soze31,2022-04-06_10h55.41.541,ratings,2022.1.1,Win32,60.0240096
0.311610487,2.954,-3.619475655,1.538,0,98,98,530,1,915_dc9fd40a3b5d64a180833a7bac86e7556c24f681f473fe255e41f936_edges.jpg,-3.09294,-0.918696,edges,soze31,2022-04-06_10h55.41.541,ratings,2022.1.1,Win32,60.0240096
-2.385018727,2.223,2.253183521,3.453,0,99,99,389,1,646_577760d718dab44c6f04d77408c5644a120065ce07a9503957d0850a_circblurext.jpg,-2.690668,2.61324,circularblurringext,soze31,2022-04-06_10h55.41.541,ratings,2022.1.1,Win32,60.0240096
-0.779026217,5.571,-3.343820225,4.04,0,100,100,272,1,434_ba36d91204d7e578001f6a545d7501e65d209554def5a3c8b7583825_edges.jpg,-3.523808,1.428572,edges,soze31,2022-04-06_10h55.41.541,ratings,2022.1.1,Win32,60.0240096
1.68988764,5.586,1.390262172,8.63,0,101,101,599,1,1239_cee00457f4cfb76a407b12fd5ad714d440a4614c1e5467ee16caf618_circblurext.jpg,-0.03174604,0.190476,circularblurringext,soze31,2022-04-06_10h55.41.541,ratings,2022.1.1,Win32,60.0240096
2.744569288,2.139,1.582022472,3.03,0,102,102,71,1,172_c641c6c56ca6b594b773084e1363c852abdb65f988d7ff802ee503f2_circblurext.jpg,0.379572,0.01725328,circularblurringext,soze31,2022-04-06_10h55.41.541,ratings,2022.1.1,Win32,60.0240096
1.450187266,5.652,-1.006741573,7.123,0,103,103,172,1,365_45a719cabbc9aa308c4fcb30d529489c6966ac4073874af84f665c61_circblurint.jpg,2.507936,-1.968252,circularblurringint,soze31,2022-04-06_10h55.41.541,ratings,2022.1.1,Win32,60.0240096
2.049438202,3.649,0.347565543,9.313,0,104,104,340,1,492_a1a4d288d3bc486c83c3b6a835c42891989f5ba781633932298a7676_circblurint.jpg,3.406892,-0.44522,circularblurringint,soze31,2022-04-06_10h55.41.541,ratings,2022.1.1,Win32,60.0240096
-1.953558052,6.966,-3.271910112,1.821,0,105,105,86,1,243_beddb302dcb21071d88c8d2cab07002050d36b3001ef28f89389fa56_edges.jpg,-0.3450656,-0.2070392,edges,soze31,2022-04-06_10h55.41.541,ratings,2022.1.1,Win32,60.0240096
2.337078652,4.908,2.576779026,2.9,0,106,106,82,1,242_85283f6935a89812ab229dcad9ba184529c9242ac3106d768ecf3ab3_circblurint.jpg,2.14918,-0.2949852,circularblurringint,soze31,2022-04-06_10h55.41.541,ratings,2022.1.1,Win32,60.0240096
1.761797753,3.836,1.51011236,6.202,0,107,107,190,1,369_c99797771115d7627d4abe3415f814497288f91a7be1a04c17c776b9_circblurint.jpg,3.619824,-0.174216,circularblurringint,soze31,2022-04-06_10h55.41.541,ratings,2022.1.1,Win32,60.0240096
2.085393258,3.265,1.546067416,14.169,0,108,108,119,1,332_4d584229bdae2e1782f77f0e953e528f13c3dfa79b4b94736c0310fa_circblurext.jpg,3.157348,0.483092,circularblurringext,soze31,2022-04-06_10h55.41.541,ratings,2022.1.1,Win32,60.0240096
-0.958801498,8.204,-2.133333333,4.285,0,109,109,368,1,616_05a637f5281666f53d4e2ef69351485fc21d629b37ee2006b2076eb6_edges.jpg,-2.380952,-0.832364,edges,soze31,2022-04-06_10h55.41.541,ratings,2022.1.1,Win32,60.0240096
1.629962547,2.395,-0.779026217,3.668,0,110,110,431,1,694_7a14b8ab7c564dcb0f628c4de7f6cb54e4c5f6601f774bf167641c37_circblurext.jpg,1.819588,0.116144,circularblurringext,soze31,2022-04-06_10h55.41.541,ratings,2022.1.1,Win32,60.0240096
-0.695131086,4.238,2.097378277,7.094,0,111,111,138,1,353_44e285740cb41818482ac93fc5fbd72c18029444a1d7506c9fc053e7_orig.jpg,-3.232676,-0.87108,original,soze31,2022-04-06_10h55.41.541,ratings,2022.1.1,Win32,60.0240096
-1.773782772,2.083,2.085393258,3.171,0,112,112,535,1,986_a77edb21e78bc3a6aa7406517824596b3496ad6c657b6befb84cf370_bw.jpg,-3.906316,-0.60496,blackwhite,soze31,2022-04-06_10h55.41.541,ratings,2022.1.1,Win32,60.0240096
1.522097378,3.029,-1.534082397,6.655,0,113,113,485,1,759_95e1c46ed9a337414d5c8eada8fa8b9632e18751f5ce6ed587806e91_circblurext.jpg,2.126984,0.0,circularblurringext,soze31,2022-04-06_10h55.41.541,ratings,2022.1.1,Win32,60.0240096
-1.306367041,3.002,-0.946816479,7.37,0,114,114,357,1,500_3b520c7f352afa1a9f8c07e56cc0588cdc04d25ff6e7b602b5e280cb_blur.jpg,-0.8328,3.11766,blurring,soze31,2022-04-06_10h55.41.541,ratings,2022.1.1,Win32,60.0240096
2.025468165,2.948,-1.857677903,7.285,0,115,115,443,1,700_59cb565f134f1afd066d7b6d936c6511b7cb76de0e9cbb5ce15124ad_circblurext.jpg,0.0,0.0,circularblurringext,soze31,2022-04-06_10h55.41.541,ratings,2022.1.1,Win32,60.0240096
-1.522097378,5.133,2.133333333,3.946,0,116,116,387,1,646_577760d718dab44c6f04d77408c5644a120065ce07a9503957d0850a_blur.jpg,-2.690668,2.61324,blurring,soze31,2022-04-06_10h55.41.541,ratings,2022.1.1,Win32,60.0240096
1.965543071,2.418,-1.426217228,5.854,0,117,117,276,1,440_9bf7e8609729bf888835168834da6c3ff30b75d0d4f36e2ee6918bcc_orig.jpg,-2.284164,2.710028,original,soze31,2022-04-06_10h55.41.541,ratings,2022.1.1,Win32,60.0240096
2.480898876,4.687,-2.193258427,7.251,0,118,118,264,1,431_ab5a1dbbe9292ac7f74e276cdabcd372e2c1f852ff34bf7cc6646ef8_orig.jpg,3.102584,0.354334,original,soze31,2022-04-06_10h55.41.541,ratings,2022.1.1,Win32,60.0240096
-1.198501873,5.408,-2.325093633,3.406,0,119,119,494,1,824_b1d91cc824ce0d3d383d3147da88d3d6dbaf6be918bab79e3ec8f501_edges.jpg,-3.645176,-1.432784,edges,soze31,2022-04-06_10h55.41.541,ratings,2022.1.1,Win32,60.0240096
1.498127341,6.631,2.001498127,8.236,0,120,120,292,1,442_7449d79dae5d652af9b2429872cabdef938646ba024db2f431b3b28d_circblurint.jpg,1.619048,0.126984,circularblurringint,soze31,2022-04-06_10h55.41.541,ratings,2022.1.1,Win32,60.0240096
1.462172285,6.169,1.426217228,3.917,0,121,121,255,1,416_5eb54976bb41ce2a6d129ef985f792e716f010fb9b69b15f50f5d2db_blur.jpg,-2.58766,2.602972,blurring,soze31,2022-04-06_10h55.41.541,ratings,2022.1.1,Win32,60.0240096
1.462172285,7.832,-0.743071161,13.768,0,122,122,466,1,736_bb85db1bcda8eb34299aa5791ac65a0a7c343266eb2d6e6e328ec0e1_circblurint.jpg,3.650792,-0.03174604,circularblurringint,soze31,2022-04-06_10h55.41.541,ratings,2022.1.1,Win32,60.0240096
2.432958801,2.379,3.223970037,9.681,0,123,123,289,1,442_7449d79dae5d652af9b2429872cabdef938646ba024db2f431b3b28d_bw.jpg,1.619048,0.126984,blackwhite,soze31,2022-04-06_10h55.41.541,ratings,2022.1.1,Win32,60.0240096
3.259925094,3.671,2.864419476,6.304,0,124,124,7,1,28_6318543b74eeb646a1735477ebc023fdc9ac3849bc0db1957c272a26_bw.jpg,2.811244,-0.74584,blackwhite,soze31,2022-04-06_10h55.41.541,ratings,2022.1.1,Win32,60.0240096
-0.874906367,2.488,-0.922846442,5.724,0,125,125,57,1,137_0e6a04243c0a42a5e2528a2d181255ca2a4b7bd6e7978c5c2059c69f_blur.jpg,-0.95238,2.095236,blurring,soze31,2022-04-06_10h55.41.541,ratings,2022.1.1,Win32,60.0240096
0.239700375,19.208,-0.826966292,24.367,0,126,126,505,1,855_66d893451dfd1e7615132071c6c8a82b02dc2b37781cd89400883b26_bw.jpg,2.69484,0.2143624,blackwhite,soze31,2022-04-06_10h55.41.541,ratings,2022.1.1,Win32,60.0240096
1.737827715,2.333,-1.162546816,10.759,0,127,127,81,1,242_85283f6935a89812ab229dcad9ba184529c9242ac3106d768ecf3ab3_blur.jpg,2.14918,-0.2949852,blurring,soze31,2022-04-06_10h55.41.541,ratings,2022.1.1,Win32,60.0240096
-0.802996255,2.174,0.838951311,5.033,0,128,128,249,1,414_0187bdf7007109b487865b6a9d388997a6817acf052a6a7cdd5b39d9_blur.jpg,-2.786708,-1.133056,blurring,soze31,2022-04-06_10h55.41.541,ratings,2022.1.1,Win32,60.0240096
-0.814981273,6.955,1.018726592,2.502,0,129,129,159,1,358_157f8ac929713531a15b1ecf115e7b659cb90e83d675251e368d165f_blur.jpg,-3.777776,-0.571428,blurring,soze31,2022-04-06_10h55.41.541,ratings,2022.1.1,Win32,60.0240096
0.239700375,13.994,-1.390262172,23.331,0,130,130,504,1,855_66d893451dfd1e7615132071c6c8a82b02dc2b37781cd89400883b26_orig.jpg,2.69484,0.2143624,original,soze31,2022-04-06_10h55.41.541,ratings,2022.1.1,Win32,60.0240096
0.299625468,8.141,-3.271910112,5.222,0,131,131,416,1,692_7d7eaf20e6de8956f0fca7500ace97a8599aa8b605a7d690cdb28724_edges.jpg,-2.063492,-1.26984,edges,soze31,2022-04-06_10h55.41.541,ratings,2022.1.1,Win32,60.0240096
-1.749812734,6.382,1.522097378,2.957,0,132,132,355,1,500_3b520c7f352afa1a9f8c07e56cc0588cdc04d25ff6e7b602b5e280cb_bw.jpg,-0.8328,3.11766,blackwhite,soze31,2022-04-06_10h55.41.541,ratings,2022.1.1,Win32,60.0240096
0.311610487,5.417,1.090636704,9.443,0,133,133,309,1,455_34a7d8167619d110206c369e3f7dce8a3f99db763a9d8e2b956501d3_blur.jpg,-2.526412,-0.3827896,blurring,soze31,2022-04-06_10h55.41.541,ratings,2022.1.1,Win32,60.0240096
-1.617977528,7.51,2.456928839,38.98,0,134,134,12,1,39_2fafccaa4dc69045a05845f59c6b3cd2edcf7e0e0c108b24e553afe0_orig.jpg,2.022756,0.463548,original,soze31,2022-04-06_10h55.41.541,ratings,2022.1.1,Win32,60.0240096
1.486142322,2.705,-1.054681648,5.195,0,135,135,203,1,380_34772591c787182a37724027eac6948ebc9d4064f6a601d23b923b8e_circblurext.jpg,2.222224,-0.063492,circularblurringext,soze31,2022-04-06_10h55.41.541,ratings,2022.1.1,Win32,60.0240096
-1.258426966,3.76,-3.044194757,1.997,0,136,136,302,1,453_54f106fd1d4b65fa4aa347407127fc30d49f791e81aee3a0bbe44489_edges.jpg,2.222224,0.0,edges,soze31,2022-04-06_10h55.41.541,ratings,2022.1.1,Win32,60.0240096
-0.743071161,6.355,1.342322097,3.836,0,137,137,161,1,358_157f8ac929713531a15b1ecf115e7b659cb90e83d675251e368d165f_circblurext.jpg,-3.777776,-0.571428,circularblurringext,soze31,2022-04-06_10h55.41.541,ratings,2022.1.1,Win32,60.0240096
4,8.228,3.367790262,10.986,0,138,138,186,1,369_c99797771115d7627d4abe3415f814497288f91a7be1a04c17c776b9_orig.jpg,3.619824,-0.174216,original,soze31,2022-04-06_10h55.41.541,ratings,2022.1.1,Win32,60.0240096
0.359550562,4.101,-3.331835206,3.067,0,139,139,164,1,361_b5541309527dc3c2422f45a95ebb0ed32005e6fe10d0489a1ff1fbdc_edges.jpg,-3.987612,-0.2516452,edges,soze31,2022-04-06_10h55.41.541,ratings,2022.1.1,Win32,60.0240096
0.275655431,11.669,-2.528838951,9.724,0,140,140,417,1,692_7d7eaf20e6de8956f0fca7500ace97a8599aa8b605a7d690cdb28724_blur.jpg,-2.063492,-1.26984,blurring,soze31,2022-04-06_10h55.41.541,ratings,2022.1.1,Win32,60.0240096
0.1917603,6.873,-2.900374532,3.419,0,141,141,170,1,365_45a719cabbc9aa308c4fcb30d529489c6966ac4073874af84f665c61_edges.jpg,2.507936,-1.968252,edges,soze31,2022-04-06_10h55.41.541,ratings,2022.1.1,Win32,60.0240096
0.311610487,10.402,-2.373033708,7.509,0,142,142,477,1,748_e519892faa7c772a0afaf9eeff36cf0e411574027ab3d9aa4947a048_blur.jpg,-1.813112,3.307432,blurring,soze31,2022-04-06_10h55.41.541,ratings,2022.1.1,Win32,60.0240096
0.311610487,4.369,-3.271910112,1.791,0,143,143,476,1,748_e519892faa7c772a0afaf9eeff36cf0e411574027ab3d9aa4947a048_edges.jpg,-1.813112,3.307432,edges,soze31,2022-04-06_10h55.41.541,ratings,2022.1.1,Win32,60.0240096
2.576779026,1.762,0.071910112,4.768,0,144,144,581,1,1061_665178b9cb0bc869cc2e2b68def4838db04e66f9531098fb75875a09_circblurext.jpg,0.3492064,-0.3174604,circularblurringext,soze31,2022-04-06_10h55.41.541,ratings,2022.1.1,Win32,60.0240096
1.198501873,3.24,-1.426217228,6.54,0,145,145,382,1,640_0ddb4981a5f5842ed5b4f7ef941be53779189df5e718b1fc5475ad80_circblurint.jpg,2.571428,-1.873016,circularblurringint,soze31,2022-04-06_10h55.41.541,ratings,2022.1.1,Win32,60.0240096
0.251685393,2.402,-2.337078652,3.633,0,146,146,451,1,716_2ab64478147184c4df720a52cf621875addc9007cb2967e4a9a88909_bw.jpg,2.428484,0.0,blackwhite,soze31,2022-04-06_10h55.41.541,ratings,2022.1.1,Win32,60.0240096
1.677902622,2.531,0.934831461,5.655,0,147,147,226,1,403_57ac47f43882fc031a6067b1a388c0b2cbe8708dcbd2ff1019932eff_circblurint.jpg,-3.333332,-1.396824,circularblurringint,soze31,2022-04-06_10h55.41.541,ratings,2022.1.1,Win32,60.0240096
1.941573034,9.276,-1.090636704,11.255,0,148,148,123,1,347_27f0e47c2722605b950ccf9fa900f78271e4c3c874064ab5dacac160_blur.jpg,1.838948,0.3097172,blurring,soze31,2022-04-06_10h55.41.541,ratings,2022.1.1,Win32,60.0240096
3.631460674,3.282,3.751310861,5.364,0,149,149,576,1,1061_665178b9cb0bc869cc2e2b68def4838db04e66f9531098fb75875a09_orig.jpg,0.3492064,-0.3174604,original,soze31,2022-04-06_10h55.41.541,ratings,2022.1.1,Win32,60.0240096
0.227715356,3.852,-3.223970037,1.571,0,150,150,560,1,1022_cf035e583d41a856836f8b0ae314ecbe79dffd9e40ef6a08cc26028f_edges.jpg,-0.2516452,3.05846,edges,soze31,2022-04-06_10h55.41.541,ratings,2022.1.1,Win32,60.0240096
1.342322097,2.974,-0.85093633,4.271,0,151,151,393,1,663_aaf52107fe3a86392530d88b34e86f9d2b6820714cad98d1e3c2cb67_blur.jpg,2.58766,0.0918696,blurring,soze31,2022-04-06_10h55.41.541,ratings,2022.1.1,Win32,60.0240096
-1.234456929,6.378,-2.852434457,2.174,0,152,152,92,1,258_d26019382777d2159a974a7654923e71598135ce2cd710cea1f92865_edges.jpg,3.497684,-0.61104,edges,soze31,2022-04-06_10h55.41.541,ratings,2022.1.1,Win32,60.0240096
1.88164794,3.651,1.054681648,8.85,0,153,153,34,1,60_ad52063167538de24f94d7dfd04808cb94cf8f426c40871d2f126505_circblurint.jpg,2.158732,0.0,circularblurringint,soze31,2022-04-06_10h55.41.541,ratings,2022.1.1,Win32,60.0240096
-1.474157303,2.036,2.456928839,5.598,0,154,154,361,1,508_a7a9519cdc7aad6844030f4e6cd96cffd1b9c49b71e20ea52789bda2_bw.jpg,-3.000388,-1.29694,blackwhite,soze31,2022-04-06_10h55.41.541,ratings,2022.1.1,Win32,60.0240096
1.68988764,4.14,1.294382022,6.425,0,155,155,149,1,354_e46c3ec6fb00773f64f2bcd212385f253c389808fe724b7cf8611051_circblurext.jpg,2.018292,0.0,circularblurringext,soze31,2022-04-06_10h55.41.541,ratings,2022.1.1,Win32,60.0240096
1.845692884,2.405,1.641947566,4.65,0,156,156,468,1,741_2b218fb015e3da83db73cacdb52e61e0c2534c1fe255bb1c5c74d47f_orig.jpg,3.140096,0.448584,original,soze31,2022-04-06_10h55.41.541,ratings,2022.1.1,Win32,60.0240096
1.354307116,5.603,-3.379775281,2.155,0,157,157,68,1,172_c641c6c56ca6b594b773084e1363c852abdb65f988d7ff802ee503f2_edges.jpg,0.379572,0.01725328,edges,soze31,2022-04-06_10h55.41.541,ratings,2022.1.1,Win32,60.0240096
3.3917603,2.935,3.3917603,4.393,0,158,158,456,1,720_483c541c48959a597fcf44320941afaf8b7695105f90d65b5f6b30f2_orig.jpg,2.158732,-0.2539684,original,soze31,2022-04-06_10h55.41.541,ratings,2022.1.1,Win32,60.0240096
3.571535581,3.228,2.948314607,5.187,0,159,159,73,1,236_f645730e1eb06155418c9a571329cc7fa320654fcaaedf1048b5cc11_bw.jpg,2.253968,0.0,blackwhite,soze31,2022-04-06_10h55.41.541,ratings,2022.1.1,Win32,60.0240096
-0.587265918,5.87,1.534082397,7.285,0,160,160,424,1,692_e3e3bf88684fbbcdb9849a4147f9e2fcd39b0f083554a829aca4e9fa_circblurint.jpg,-0.44522,3.135888,circularblurringint,soze31,2022-04-06_10h55.41.541,ratings,2022.1.1,Win32,60.0240096
1.41423221,5.238,-0.527340824,9.346,0,161,161,268,1,431_ab5a1dbbe9292ac7f74e276cdabcd372e2c1f852ff34bf7cc6646ef8_circblurint.jpg,3.102584,0.354334,circularblurringint,soze31,2022-04-06_10h55.41.541,ratings,2022.1.1,Win32,60.0240096
-1.018726592,2.591,3.020224719,5.59,0,162,162,384,1,646_577760d718dab44c6f04d77408c5644a120065ce07a9503957d0850a_orig.jpg,-2.690668,2.61324,original,soze31,2022-04-06_10h55.41.541,ratings,2022.1.1,Win32,60.0240096
0.239700375,3.001,-1.725842697,6.492,0,163,163,87,1,243_beddb302dcb21071d88c8d2cab07002050d36b3001ef28f89389fa56_blur.jpg,-0.3450656,-0.2070392,blurring,soze31,2022-04-06_10h55.41.541,ratings,2022.1.1,Win32,60.0240096
0.179775281,3.897,-3.271910112,1.564,0,164,164,452,1,716_2ab64478147184c4df720a52cf621875addc9007cb2967e4a9a88909_edges.jpg,2.428484,0.0,edges,soze31,2022-04-06_10h55.41.541,ratings,2022.1.1,Win32,60.0240096
1.594007491,5.522,1.97752809,10.32,0,165,165,91,1,258_d26019382777d2159a974a7654923e71598135ce2cd710cea1f92865_bw.jpg,3.497684,-0.61104,blackwhite,soze31,2022-04-06_10h55.41.541,ratings,2022.1.1,Win32,60.0240096
3.10411985,7.011,3.10411985,8.749,0,166,166,486,1,818_877aae033c31e3bbca4486321a5307f87cf53c576c546462d3daf194_orig.jpg,-1.277584,0.619436,original,soze31,2022-04-06_10h55.41.541,ratings,2022.1.1,Win32,60.0240096
2.001498127,4.318,1.929588015,5.114,0,167,167,199,1,380_34772591c787182a37724027eac6948ebc9d4064f6a601d23b923b8e_bw.jpg,2.222224,-0.063492,blackwhite,soze31,2022-04-06_10h55.41.541,ratings,2022.1.1,Win32,60.0240096
-0.707116105,3.457,1.042696629,6.604,0,168,168,136,1,349_8809a67686d34844c915d7700e2ea72ad1c02ae232ae0d3cc0e458d4_circblurint.jpg,-3.619048,-0.2857144,circularblurringint,soze31,2022-04-06_10h55.41.541,ratings,2022.1.1,Win32,60.0240096
2.900374532,4.169,1.653932584,6.94,0,169,169,448,1,709_69c01dcde028a2a1a913f1a2a5026ae1748484f75c89217a040c6791_circblurint.jpg,1.432444,-0.01935732,circularblurringint,soze31,2022-04-06_10h55.41.541,ratings,2022.1.1,Win32,60.0240096
-1.114606742,2.264,2.468913858,5.346,0,170,170,570,1,1039_d64da8480fc6e94dcdc513237d600570ae0b9fe48795ac6a8b2d29a7_orig.jpg,-2.507936,-1.142856,original,soze31,2022-04-06_10h55.41.541,ratings,2022.1.1,Win32,60.0240096
2.492883895,4.809,0.131835206,7.589,0,171,171,43,1,92_5d20d78a8e57e628c6930676473a4e0a485e715841efd6286c660020_bw.jpg,2.126984,0.0,blackwhite,soze31,2022-04-06_10h55.41.541,ratings,2022.1.1,Win32,60.0240096
0.371535581,2.413,-3.427715356,4.375,0,172,172,99,1,267_792043debad81ce271cec5b3c3bd9d264efc13f362bec9c7a3f72fe7_blur.jpg,1.980616,0.2107036,blurring,soze31,2022-04-06_10h55.41.541,ratings,2022.1.1,Win32,60.0240096
2.397003745,1.676,-0.035955056,11.95,0,173,173,469,1,741_2b218fb015e3da83db73cacdb52e61e0c2534c1fe255bb1c5c74d47f_bw.jpg,3.140096,0.448584,blackwhite,soze31,2022-04-06_10h55.41.541,ratings,2022.1.1,Win32,60.0240096
-0.395505618,10.24,-3.355805243,3.233,0,174,174,194,1,379_eeaa6d9bf5a4ef205dc48bc505cf3a7f24ea86e99af9b371e03602a7_edges.jpg,-0.3926308,2.88936,edges,soze31,2022-04-06_10h55.41.541,ratings,2022.1.1,Win32,60.0240096
-0.874906367,3.622,1.905617978,8.151,0,175,175,433,1,694_f80f33613b268beffd6c044537cf3b44a84683d6e889bc37b8e9c34b_bw.jpg,-0.3785616,3.34728,blackwhite,soze31,2022-04-06_10h55.41.541,ratings,2022.1.1,Win32,60.0240096
2.397003745,3.924,-2.780524345,5.383,0,176,176,518,1,860_05c4e22518a30d3d2add458a8fc6488f87b9b02dd8e385ded939f025_edges.jpg,1.955092,0.3097172,edges,soze31,2022-04-06_10h55.41.541,ratings,2022.1.1,Win32,60.0240096
-0.479400749,3.165,-0.431460674,7.69,0,177,177,400,1,683_a004ad18331da968da5debdd15e1447dd7748750af0bc6c57b844200_circblurint.jpg,-2.91956,2.466524,circularblurringint,soze31,2022-04-06_10h55.41.541,ratings,2022.1.1,Win32,60.0240096
-1.402247191,4.132,1.366292135,9.324,0,178,178,322,1,460_e06b3af7ff2f2bfb5f9b6e3d5dc25b9aaa40b84823fac8fd934621bd_circblurint.jpg,-3.430992,-1.607468,circularblurringint,soze31,2022-04-06_10h55.41.541,ratings,2022.1.1,Win32,60.0240096
0.299625468,7.991,-1.845692884,10.392,0,179,179,111,1,293_3dfdfafc0c6a54b2da7453750ac281f7718c0b3337b0a74c4563d6bd_blur.jpg,-2.574524,2.632596,blurring,soze31,2022-04-06_10h55.41.541,ratings,2022.1.1,Win32,60.0240096
0.371535581,2.419,-1.857677903,3.644,0,180,180,363,1,508_a7a9519cdc7aad6844030f4e6cd96cffd1b9c49b71e20ea52789bda2_blur.jpg,-3.000388,-1.29694,blurring,soze31,2022-04-06_10h55.41.541,ratings,2022.1.1,Win32,60.0240096
-0.251685393,8.197,1.486142322,4.199,0,181,181,405,1,686_6745b57686ad5d1bd6cf3e7ed5bc0243a154f8939e88e30321dfcfdb_blur.jpg,-1.523808,3.650792,blurring,soze31,2022-04-06_10h55.41.541,ratings,2022.1.1,Win32,60.0240096
-0.922846442,3.007,-3.223970037,1.856,0,182,182,332,1,482_a1cd28915c5044c018195ab0fff10dcc95e385246b045a7cd4463ff7_edges.jpg,-3.361852,-1.555612,edges,soze31,2022-04-06_10h55.41.541,ratings,2022.1.1,Win32,60.0240096
1.03071161,13.541,0.1917603,15.011,0,183,183,173,1,365_45a719cabbc9aa308c4fcb30d529489c6966ac4073874af84f665c61_circblurext.jpg,2.507936,-1.968252,circularblurringext,soze31,2022-04-06_10h55.41.541,ratings,2022.1.1,Win32,60.0240096
1.486142322,1.423,-0.934831461,2.673,0,184,184,519,1,860_05c4e22518a30d3d2add458a8fc6488f87b9b02dd8e385ded939f025_blur.jpg,1.955092,0.3097172,blurring,soze31,2022-04-06_10h55.41.541,ratings,2022.1.1,Win32,60.0240096
1.653932584,3.617,-0.46741573,4.833,0,185,185,450,1,716_2ab64478147184c4df720a52cf621875addc9007cb2967e4a9a88909_orig.jpg,2.428484,0.0,original,soze31,2022-04-06_10h55.41.541,ratings,2022.1.1,Win32,60.0240096
0.275655431,4.101,0.251685393,8.075,0,186,186,101,1,267_792043debad81ce271cec5b3c3bd9d264efc13f362bec9c7a3f72fe7_circblurext.jpg,1.980616,0.2107036,circularblurringext,soze31,2022-04-06_10h55.41.541,ratings,2022.1.1,Win32,60.0240096
-0.886891386,1.77,-1.677902622,3.858,0,187,187,243,1,411_adfd0d5782129756321ff671d0cfb712528504c66c863df11aabd1e7_blur.jpg,-3.392332,-1.369576,blurring,soze31,2022-04-06_10h55.41.541,ratings,2022.1.1,Win32,60.0240096
4,12.616,3.188014981,8.838,0,188,188,145,1,354_e46c3ec6fb00773f64f2bcd212385f253c389808fe724b7cf8611051_bw.jpg,2.018292,0.0,blackwhite,soze31,2022-04-06_10h55.41.541,ratings,2022.1.1,Win32,60.0240096
-1.078651685,6.757,2.037453184,5.204,0,189,189,358,1,500_3b520c7f352afa1a9f8c07e56cc0588cdc04d25ff6e7b602b5e280cb_circblurint.jpg,-0.8328,3.11766,circularblurringint,soze31,2022-04-06_10h55.41.541,ratings,2022.1.1,Win32,60.0240096
1.641947566,2.424,-1.725842697,5.004,0,190,190,225,1,403_57ac47f43882fc031a6067b1a388c0b2cbe8708dcbd2ff1019932eff_blur.jpg,-3.333332,-1.396824,blurring,soze31,2022-04-06_10h55.41.541,ratings,2022.1.1,Win32,60.0240096
1.737827715,2.347,-2.456928839,3.661,0,191,191,219,1,396_208259ea431d47bb7f3946213eb099834eb119756ce304ad473d4d9f_blur.jpg,2.857144,-0.3809524,blurring,soze31,2022-04-06_10h55.41.541,ratings,2022.1.1,Win32,60.0240096
1.210486891,11.022,-0.251685393,5.878,0,192,192,410,1,687_e3b018945792a574962235c88c553b7c318c75eec2596478e8a7b877_edges.jpg,3.63918,-0.42586,edges,soze31,2022-04-06_10h55.41.541,ratings,2022.1.1,Win32,60.0240096
0.323595506,2.618,-2.768539326,1.4,0,193,193,218,1,396_208259ea431d47bb7f3946213eb099834eb119756ce304ad473d4d9f_edges.jpg,2.857144,-0.3809524,edges,soze31,2022-04-06_10h55.41.541,ratings,2022.1.1,Win32,60.0240096
-0.551310861,3.909,-0.695131086,5.588,0,194,194,209,1,381_5935a9f9796adce2f1539af6c75bcdc0c80d847a2ce9b77cf59b7672_circblurext.jpg,-1.327432,-0.442476,circularblurringext,soze31,2022-04-06_10h55.41.541,ratings,2022.1.1,Win32,60.0240096
-1.354307116,3.465,-0.767041199,2.195,0,195,195,261,1,416_8a1f874e0057d67a4e6955865ba88b2d8ce2c8b4469589307687a723_blur.jpg,-1.753336,3.088264,blurring,soze31,2022-04-06_10h55.41.541,ratings,2022.1.1,Win32,60.0240096
1.306367041,4.2,1.090636704,10.863,0,196,196,184,1,369_98db62a1bdabfd1bc551180da6658005b461585cd21614633cf76470_circblurint.jpg,2.190476,-0.03174604,circularblurringint,soze31,2022-04-06_10h55.41.541,ratings,2022.1.1,Win32,60.0240096
-1.042696629,5.388,0.719101124,4.099,0,197,197,335,1,482_a1cd28915c5044c018195ab0fff10dcc95e385246b045a7cd4463ff7_circblurext.jpg,-3.361852,-1.555612,circularblurringext,soze31,2022-04-06_10h55.41.541,ratings,2022.1.1,Win32,60.0240096
0.311610487,7.99,-0.707116105,4.857,0,198,198,479,1,748_e519892faa7c772a0afaf9eeff36cf0e411574027ab3d9aa4947a048_circblurext.jpg,-1.813112,3.307432,circularblurringext,soze31,2022-04-06_10h55.41.541,ratings,2022.1.1,Win32,60.0240096
1.282397004,1.386,-1.246441948,2.938,0,199,199,33,1,60_ad52063167538de24f94d7dfd04808cb94cf8f426c40871d2f126505_blur.jpg,2.158732,0.0,blurring,soze31,2022-04-06_10h55.41.541,ratings,2022.1.1,Win32,60.0240096
0.179775281,3.288,-1.617977528,5.275,0,200,200,215,1,394_8e3a0cb945144d53bd1ace04b6256237ed9dcbbd9cb83f8a4886b0e6_circblurext.jpg,-2.593884,2.651956,circularblurringext,soze31,2022-04-06_10h55.41.541,ratings,2022.1.1,Win32,60.0240096
0.479400749,2.038,-3.535580524,4.427,0,201,201,213,1,394_8e3a0cb945144d53bd1ace04b6256237ed9dcbbd9cb83f8a4886b0e6_blur.jpg,-2.593884,2.651956,blurring,soze31,2022-04-06_10h55.41.541,ratings,2022.1.1,Win32,60.0240096
0.85093633,2.606,-3.128089888,1.581,0,202,202,470,1,741_2b218fb015e3da83db73cacdb52e61e0c2534c1fe255bb1c5c74d47f_edges.jpg,3.140096,0.448584,edges,soze31,2022-04-06_10h55.41.541,ratings,2022.1.1,Win32,60.0240096
-1.582022472,6.759,1.018726592,9.829,0,203,203,258,1,416_8a1f874e0057d67a4e6955865ba88b2d8ce2c8b4469589307687a723_orig.jpg,-1.753336,3.088264,original,soze31,2022-04-06_10h55.41.541,ratings,2022.1.1,Win32,60.0240096
0.239700375,9.6,2.025468165,2.729,0,204,204,270,1,434_ba36d91204d7e578001f6a545d7501e65d209554def5a3c8b7583825_orig.jpg,-3.523808,1.428572,original,soze31,2022-04-06_10h55.41.541,ratings,2022.1.1,Win32,60.0240096
0.299625468,4.715,-0.862921348,8.896,0,205,205,491,1,818_877aae033c31e3bbca4486321a5307f87cf53c576c546462d3daf194_circblurext.jpg,-1.277584,0.619436,circularblurringext,soze31,2022-04-06_10h55.41.541,ratings,2022.1.1,Win32,60.0240096
0.359550562,4.142,-0.779026217,7.067,0,206,206,311,1,455_34a7d8167619d110206c369e3f7dce8a3f99db763a9d8e2b956501d3_circblurext.jpg,-2.526412,-0.3827896,circularblurringext,soze31,2022-04-06_10h55.41.541,ratings,2022.1.1,Win32,60.0240096
0.335580524,5.023,-1.054681648,7.594,0,207,207,143,1,353_44e285740cb41818482ac93fc5fbd72c18029444a1d7506c9fc053e7_circblurext.jpg,-3.232676,-0.87108,circularblurringext,soze31,2022-04-06_10h55.41.541,ratings,2022.1.1,Win32,60.0240096
0.287640449,4.896,-2.804494382,1.73,0,208,208,308,1,455_34a7d8167619d110206c369e3f7dce8a3f99db763a9d8e2b956501d3_edges.jpg,-2.526412,-0.3827896,edges,soze31,2022-04-06_10h55.41.541,ratings,2022.1.1,Win32,60.0240096
0.419475655,3.221,-3.715355805,1.757,0,209,209,152,1,355_00a76f54934d36566dd0e7b091b8aa6a56d8e6b32d349aa578a10b45_edges.jpg,2.910052,0.3439152,edges,soze31,2022-04-06_10h55.41.541,ratings,2022.1.1,Win32,60.0240096
1.186516854,2.668,-3.619475655,1.785,0,210,210,506,1,855_66d893451dfd1e7615132071c6c8a82b02dc2b37781cd89400883b26_edges.jpg,2.69484,0.2143624,edges,soze31,2022-04-06_10h55.41.541,ratings,2022.1.1,Win32,60.0240096
-0.802996255,3.388,-2.696629213,2.02,0,211,211,242,1,411_adfd0d5782129756321ff671d0cfb712528504c66c863df11aabd1e7_edges.jpg,-3.392332,-1.369576,edges,soze31,2022-04-06_10h55.41.541,ratings,2022.1.1,Win32,60.0240096
-3.068164794,4.599,2.63670412,2.409,0,212,212,318,1,460_e06b3af7ff2f2bfb5f9b6e3d5dc25b9aaa40b84823fac8fd934621bd_orig.jpg,-3.430992,-1.607468,original,soze31,2022-04-06_10h55.41.541,ratings,2022.1.1,Win32,60.0240096
3.607490637,1.807,3.547565543,3.107,0,213,213,445,1,709_69c01dcde028a2a1a913f1a2a5026ae1748484f75c89217a040c6791_bw.jpg,1.432444,-0.01935732,blackwhite,soze31,2022-04-06_10h55.41.541,ratings,2022.1.1,Win32,60.0240096
3.3917603,2.071,2.876404494,15.318,0,214,214,187,1,369_c99797771115d7627d4abe3415f814497288f91a7be1a04c17c776b9_bw.jpg,3.619824,-0.174216,blackwhite,soze31,2022-04-06_10h55.41.541,ratings,2022.1.1,Win32,60.0240096
2.504868914,2.799,2.193258427,4.225,0,215,215,222,1,403_57ac47f43882fc031a6067b1a388c0b2cbe8708dcbd2ff1019932eff_orig.jpg,-3.333332,-1.396824,original,soze31,2022-04-06_10h55.41.541,ratings,2022.1.1,Win32,60.0240096
-0.838951311,3.954,1.31835206,6.027,0,216,216,89,1,243_beddb302dcb21071d88c8d2cab07002050d36b3001ef28f89389fa56_circblurext.jpg,-0.3450656,-0.2070392,circularblurringext,soze31,2022-04-06_10h55.41.541,ratings,2022.1.1,Win32,60.0240096
0.239700375,9.685,-0.814981273,7.996,0,217,217,442,1,700_59cb565f134f1afd066d7b6d936c6511b7cb76de0e9cbb5ce15124ad_circblurint.jpg,0.0,0.0,circularblurringint,soze31,2022-04-06_10h55.41.541,ratings,2022.1.1,Win32,60.0240096
-1.713857678,9.174,1.737827715,12.461,0,218,218,156,1,358_157f8ac929713531a15b1ecf115e7b659cb90e83d675251e368d165f_orig.jpg,-3.777776,-0.571428,original,soze31,2022-04-06_10h55.41.541,ratings,2022.1.1,Win32,60.0240096
3.259925094,3.685,3.331835206,4.952,0,219,219,18,1,48_2cc936b2483ab2944c9158e163342b874ef6c1492fd8fca08c0e096e_orig.jpg,-1.264224,-0.779604,original,soze31,2022-04-06_10h55.41.541,ratings,2022.1.1,Win32,60.0240096
1.114606742,3.519,-2.133333333,6.483,0,220,220,411,1,687_e3b018945792a574962235c88c553b7c318c75eec2596478e8a7b877_blur.jpg,3.63918,-0.42586,blurring,soze31,2022-04-06_10h55.41.541,ratings,2022.1.1,Win32,60.0240096
1.066666667,3.502,-2.205243446,2.42,0,221,221,525,1,877_cab3efed0c9ff4552037df6c1ea4ea9713f915c94592a14dbf2799da_blur.jpg,3.174604,0.3174604,blurring,soze31,2022-04-06_10h55.41.541,ratings,2022.1.1,Win32,60.0240096
-0.874906367,2.21,1.22247191,5.023,0,222,222,247,1,414_0187bdf7007109b487865b6a9d388997a6817acf052a6a7cdd5b39d9_bw.jpg,-2.786708,-1.133056,blackwhite,soze31,2022-04-06_10h55.41.541,ratings,2022.1.1,Win32,60.0240096
-1.605992509,10.013,0.311610487,13.27,0,223,223,166,1,361_b5541309527dc3c2422f45a95ebb0ed32005e6fe10d0489a1ff1fbdc_circblurint.jpg,-3.987612,-0.2516452,circularblurringint,soze31,2022-04-06_10h55.41.541,ratings,2022.1.1,Win32,60.0240096
0.922846442,5.045,-1.006741573,12.777,0,224,224,430,1,694_7a14b8ab7c564dcb0f628c4de7f6cb54e4c5f6601f774bf167641c37_circblurint.jpg,1.819588,0.116144,circularblurringint,soze31,2022-04-06_10h55.41.541,ratings,2022.1.1,Win32,60.0240096
3.271910112,1.852,2.34906367,6.534,0,225,225,577,1,1061_665178b9cb0bc869cc2e2b68def4838db04e66f9531098fb75875a09_bw.jpg,0.3492064,-0.3174604,blackwhite,soze31,2022-04-06_10h55.41.541,ratings,2022.1.1,Win32,60.0240096
-0.299625468,4.235,-0.707116105,9.986,0,226,226,587,1,1225_59c67a821456f2cce3e5acf66d7f00076bd02caffc984c1eb0df794e_circblurext.jpg,-0.444444,3.809524,circularblurringext,soze31,2022-04-06_10h55.41.541,ratings,2022.1.1,Win32,60.0240096
0.371535581,8.319,-0.874906367,4.107,0,227,227,275,1,434_ba36d91204d7e578001f6a545d7501e65d209554def5a3c8b7583825_circblurext.jpg,-3.523808,1.428572,circularblurringext,soze31,2022-04-06_10h55.41.541,ratings,2022.1.1,Win32,60.0240096
-0.767041199,2.108,-0.059925094,3.57,0,228,228,245,1,411_adfd0d5782129756321ff671d0cfb712528504c66c863df11aabd1e7_circblurext.jpg,-3.392332,-1.369576,circularblurringext,soze31,2022-04-06_10h55.41.541,ratings,2022.1.1,Win32,60.0240096
0.46741573,2.1,-2.840449438,3.604,0,229,229,297,1,449_9c1e990a3480e5b51430fe76b0188e69ba2468fd6a866b88b2d0dd75_blur.jpg,0.095238,0.03174604,blurring,soze31,2022-04-06_10h55.41.541,ratings,2022.1.1,Win32,60.0240096
0.239700375,13.399,-3.116104869,8.971,0,230,230,375,1,620_9674719009d75dcfeaed7f15932c43e1fd1af5e25d47b8aadd61efe2_blur.jpg,-0.561364,1.142084,blurring,soze31,2022-04-06_10h55.41.541,ratings,2022.1.1,Win32,60.0240096
1.773782772,1.786,1.51011236,6.17,0,231,231,178,1,368_6507b94d7d0199f14efd3706db30c9c44b96085f84e9cc7792e3e0ae_circblurint.jpg,1.959544,0.400336,circularblurringint,soze31,2022-04-06_10h55.41.541,ratings,2022.1.1,Win32,60.0240096
-0.011985019,11.939,-0.551310861,9.627,0,232,232,526,1,877_cab3efed0c9ff4552037df6c1ea4ea9713f915c94592a14dbf2799da_circblurint.jpg,3.174604,0.3174604,circularblurringint,soze31,2022-04-06_10h55.41.541,ratings,2022.1.1,Win32,60.0240096
0.683146067,6.073,-2.001498127,4.162,0,233,233,467,1,736_bb85db1bcda8eb34299aa5791ac65a0a7c343266eb2d6e6e328ec0e1_circblurext.jpg,3.650792,-0.03174604,circularblurringext,soze31,2022-04-06_10h55.41.541,ratings,2022.1.1,Win32,60.0240096
0.323595506,3.174,-3.487640449,1.81,0,234,234,260,1,416_8a1f874e0057d67a4e6955865ba88b2d8ce2c8b4469589307687a723_edges.jpg,-1.753336,3.088264,edges,soze31,2022-04-06_10h55.41.541,ratings,2022.1.1,Win32,60.0240096
0.934831461,5.58,1.869662921,9.633,0,235,235,366,1,616_05a637f5281666f53d4e2ef69351485fc21d629b37ee2006b2076eb6_orig.jpg,-2.380952,-0.832364,original,soze31,2022-04-06_10h55.41.541,ratings,2022.1.1,Win32,60.0240096
1.737827715,2.89,2.420973783,4.104,0,236,236,391,1,663_aaf52107fe3a86392530d88b34e86f9d2b6820714cad98d1e3c2cb67_bw.jpg,2.58766,0.0918696,blackwhite,soze31,2022-04-06_10h55.41.541,ratings,2022.1.1,Win32,60.0240096
1.114606742,5.864,-2.181273408,3.38,0,237,237,290,1,442_7449d79dae5d652af9b2429872cabdef938646ba024db2f431b3b28d_edges.jpg,1.619048,0.126984,edges,soze31,2022-04-06_10h55.41.541,ratings,2022.1.1,Win32,60.0240096
-1.68988764,23.21,2.528838951,19.195,0,238,238,493,1,824_b1d91cc824ce0d3d383d3147da88d3d6dbaf6be918bab79e3ec8f501_bw.jpg,-3.645176,-1.432784,blackwhite,soze31,2022-04-06_10h55.41.541,ratings,2022.1.1,Win32,60.0240096
0.958801498,3.52,-2.025468165,1.635,0,239,239,80,1,242_85283f6935a89812ab229dcad9ba184529c9242ac3106d768ecf3ab3_edges.jpg,2.14918,-0.2949852,edges,soze31,2022-04-06_10h55.41.541,ratings,2022.1.1,Win32,60.0240096
2.289138577,1.858,0.275655431,4.198,0,240,240,198,1,380_34772591c787182a37724027eac6948ebc9d4064f6a601d23b923b8e_orig.jpg,2.222224,-0.063492,original,soze31,2022-04-06_10h55.41.541,ratings,2022.1.1,Win32,60.0240096
1.474157303,2.313,0.515355805,4.518,0,241,241,283,1,440_dc6413e2b65369ee2587f4d85621742fe4ca87392d0a8ad2ea7d94e3_bw.jpg,-3.016216,1.69404,blackwhite,soze31,2022-04-06_10h55.41.541,ratings,2022.1.1,Win32,60.0240096
0.1917603,4.251,-0.898876404,6.205,0,242,242,367,1,616_05a637f5281666f53d4e2ef69351485fc21d629b37ee2006b2076eb6_bw.jpg,-2.380952,-0.832364,blackwhite,soze31,2022-04-06_10h55.41.541,ratings,2022.1.1,Win32,60.0240096
1.402247191,4.415,1.833707865,3.168,0,243,243,193,1,379_eeaa6d9bf5a4ef205dc48bc505cf3a7f24ea86e99af9b371e03602a7_bw.jpg,-0.3926308,2.88936,blackwhite,soze31,2022-04-06_10h55.41.541,ratings,2022.1.1,Win32,60.0240096
-0.731086142,4.974,-1.066666667,6.408,0,244,244,359,1,500_3b520c7f352afa1a9f8c07e56cc0588cdc04d25ff6e7b602b5e280cb_circblurext.jpg,-0.8328,3.11766,circularblurringext,soze31,2022-04-06_10h55.41.541,ratings,2022.1.1,Win32,60.0240096
1.258426966,1.877,1.426217228,10.791,0,245,245,480,1,759_95e1c46ed9a337414d5c8eada8fa8b9632e18751f5ce6ed587806e91_orig.jpg,2.126984,0.0,original,soze31,2022-04-06_10h55.41.541,ratings,2022.1.1,Win32,60.0240096
1.68988764,1.545,2.16928839,2.396,0,246,246,30,1,60_ad52063167538de24f94d7dfd04808cb94cf8f426c40871d2f126505_orig.jpg,2.158732,0.0,original,soze31,2022-04-06_10h55.41.541,ratings,2022.1.1,Win32,60.0240096
-0.203745318,41.695,-0.46741573,44.365,0,247,247,370,1,616_05a637f5281666f53d4e2ef69351485fc21d629b37ee2006b2076eb6_circblurint.jpg,-2.380952,-0.832364,circularblurringint,soze31,2022-04-06_10h55.41.541,ratings,2022.1.1,Win32,60.0240096
-2.193258427,4.593,1.186516854,3.526,0,248,248,307,1,455_34a7d8167619d110206c369e3f7dce8a3f99db763a9d8e2b956501d3_bw.jpg,-2.526412,-0.3827896,blackwhite,soze31,2022-04-06_10h55.41.541,ratings,2022.1.1,Win32,60.0240096
2.013483146,3.821,-3.080149813,2.2,0,249,249,146,1,354_e46c3ec6fb00773f64f2bcd212385f253c389808fe724b7cf8611051_edges.jpg,2.018292,0.0,edges,soze31,2022-04-06_10h55.41.541,ratings,2022.1.1,Win32,60.0240096
1.546067416,2.831,-0.802996255,6.026,0,250,250,337,1,492_a1a4d288d3bc486c83c3b6a835c42891989f5ba781633932298a7676_bw.jpg,3.406892,-0.44522,blackwhite,soze31,2022-04-06_10h55.41.541,ratings,2022.1.1,Win32,60.0240096
0.239700375,1.527,-1.234456929,2.782,0,251,251,557,1,1014_a5c212ca979d482cf94c2db7697aba75620391a64b030ab7ad2bbecf_circblurext.jpg,-3.174604,-1.374372,circularblurringext,soze31,2022-04-06_10h55.41.541,ratings,2022.1.1,Win32,60.0240096
-1.905617978,2.904,0.287640449,5.141,0,252,252,510,1,858_2f6539ee36aba48c38dc716d4f7c3ae93367d6ddf23ab41745d4172c_orig.jpg,0.0623832,0.176752,original,soze31,2022-04-06_10h55.41.541,ratings,2022.1.1,Win32,60.0240096
2.193258427,4.101,2.373033708,17.661,0,253,253,516,1,860_05c4e22518a30d3d2add458a8fc6488f87b9b02dd8e385ded939f025_orig.jpg,1.955092,0.3097172,original,soze31,2022-04-06_10h55.41.541,ratings,2022.1.1,Win32,60.0240096
-0.946816479,7.874,-1.869662921,5.902,0,254,254,104,1,284_cdcbd54fc995081ac95c8b2c37a19cebb341f61a8eb268cee1623492_edges.jpg,-1.015872,2.095236,edges,soze31,2022-04-06_10h55.41.541,ratings,2022.1.1,Win32,60.0240096
0.1917603,2.653,-0.862921348,9.53,0,255,255,214,1,394_8e3a0cb945144d53bd1ace04b6256237ed9dcbbd9cb83f8a4886b0e6_circblurint.jpg,-2.593884,2.651956,circularblurringint,soze31,2022-04-06_10h55.41.541,ratings,2022.1.1,Win32,60.0240096
1.270411985,7.87,-0.491385768,24.689,0,256,256,202,1,380_34772591c787182a37724027eac6948ebc9d4064f6a601d23b923b8e_circblurint.jpg,2.222224,-0.063492,circularblurringint,soze31,2022-04-06_10h55.41.541,ratings,2022.1.1,Win32,60.0240096
-1.186516854,8.177,1.534082397,5.476,0,257,257,133,1,349_8809a67686d34844c915d7700e2ea72ad1c02ae232ae0d3cc0e458d4_bw.jpg,-3.619048,-0.2857144,blackwhite,soze31,2022-04-06_10h55.41.541,ratings,2022.1.1,Win32,60.0240096
0.934831461,4.392,0.227715356,7.073,0,258,258,28,1,59_8568373b727f29d67ba6ce4c360dd918c8b08b13495fca56bdda5e82_circblurint.jpg,2.064896,0.505688,circularblurringint,soze31,2022-04-06_10h55.41.541,ratings,2022.1.1,Win32,60.0240096
2.289138577,2.164,2.900374532,3.478,0,259,259,180,1,369_98db62a1bdabfd1bc551180da6658005b461585cd21614633cf76470_orig.jpg,2.190476,-0.03174604,original,soze31,2022-04-06_10h55.41.541,ratings,2022.1.1,Win32,60.0240096
0.335580524,1.582,-2.265168539,3.591,0,260,260,381,1,640_0ddb4981a5f5842ed5b4f7ef941be53779189df5e718b1fc5475ad80_blur.jpg,2.571428,-1.873016,blurring,soze31,2022-04-06_10h55.41.541,ratings,2022.1.1,Win32,60.0240096
2.948314607,3.239,3.271910112,5.418,0,261,261,438,1,700_59cb565f134f1afd066d7b6d936c6511b7cb76de0e9cbb5ce15124ad_orig.jpg,0.0,0.0,original,soze31,2022-04-06_10h55.41.541,ratings,2022.1.1,Win32,60.0240096
1.282397004,3.593,-0.743071161,4.858,0,262,262,60,1,156_08e8cf8f04630e9213e610580de73f51572d1d589878648700bae4dc_orig.jpg,2.222224,0.0,original,soze31,2022-04-06_10h55.41.541,ratings,2022.1.1,Win32,60.0240096
0.814981273,14.818,-1.605992509,16.699,0,263,263,352,1,498_305b74cdc4784d9d25e72724302e5402def70177ea31ae7e25fab66b_circblurint.jpg,3.04762,-0.444444,circularblurringint,soze31,2022-04-06_10h55.41.541,ratings,2022.1.1,Win32,60.0240096
-1.402247191,11.658,3.29588015,13.229,0,264,264,402,1,686_6745b57686ad5d1bd6cf3e7ed5bc0243a154f8939e88e30321dfcfdb_orig.jpg,-1.523808,3.650792,original,soze31,2022-04-06_10h55.41.541,ratings,2022.1.1,Win32,60.0240096
0.946816479,4.283,1.354307116,9.716,0,265,265,487,1,818_877aae033c31e3bbca4486321a5307f87cf53c576c546462d3daf194_bw.jpg,-1.277584,0.619436,blackwhite,soze31,2022-04-06_10h55.41.541,ratings,2022.1.1,Win32,60.0240096
-0.527340824,6.399,1.857677903,8.684,0,266,266,329,1,468_8b69b13120daebadd8a4a3166e1419f2404395cba231307a4efa9fde_circblurext.jpg,2.031744,0.2539684,circularblurringext,soze31,2022-04-06_10h55.41.541,ratings,2022.1.1,Win32,60.0240096
2.013483146,2.232,-0.395505618,5.386,0,267,267,191,1,369_c99797771115d7627d4abe3415f814497288f91a7be1a04c17c776b9_circblurext.jpg,3.619824,-0.174216,circularblurringext,soze31,2022-04-06_10h55.41.541,ratings,2022.1.1,Win32,60.0240096
1.701872659,3.425,-0.922846442,6.871,0,268,268,598,1,1239_cee00457f4cfb76a407b12fd5ad714d440a4614c1e5467ee16caf618_circblurint.jpg,-0.03174604,0.190476,circularblurringint,soze31,2022-04-06_10h55.41.541,ratings,2022.1.1,Win32,60.0240096
1.570037453,4.412,1.869662921,5.931,0,269,269,348,1,498_305b74cdc4784d9d25e72724302e5402def70177ea31ae7e25fab66b_orig.jpg,3.04762,-0.444444,original,soze31,2022-04-06_10h55.41.541,ratings,2022.1.1,Win32,60.0240096
-1.749812734,1.909,2.049438202,3.976,0,270,270,529,1,915_dc9fd40a3b5d64a180833a7bac86e7556c24f681f473fe255e41f936_bw.jpg,-3.09294,-0.918696,blackwhite,soze31,2022-04-06_10h55.41.541,ratings,2022.1.1,Win32,60.0240096
0.311610487,7.775,-3.140074906,2.126,0,271,271,512,1,858_2f6539ee36aba48c38dc716d4f7c3ae93367d6ddf23ab41745d4172c_edges.jpg,0.0623832,0.176752,edges,soze31,2022-04-06_10h55.41.541,ratings,2022.1.1,Win32,60.0240096
0.970786517,6.489,-0.982771536,2.531,0,272,272,100,1,267_792043debad81ce271cec5b3c3bd9d264efc13f362bec9c7a3f72fe7_circblurint.jpg,1.980616,0.2107036,circularblurringint,soze31,2022-04-06_10h55.41.541,ratings,2022.1.1,Win32,60.0240096
1.330337079,8.381,-2.361048689,4.073,0,273,273,524,1,877_cab3efed0c9ff4552037df6c1ea4ea9713f915c94592a14dbf2799da_edges.jpg,3.174604,0.3174604,edges,soze31,2022-04-06_10h55.41.541,ratings,2022.1.1,Win32,60.0240096
0.862921348,2.513,-1.917602996,3.701,0,274,274,465,1,736_bb85db1bcda8eb34299aa5791ac65a0a7c343266eb2d6e6e328ec0e1_blur.jpg,3.650792,-0.03174604,blurring,soze31,2022-04-06_10h55.41.541,ratings,2022.1.1,Win32,60.0240096
0.263670412,1.908,-0.647191011,4.139,0,275,275,151,1,355_00a76f54934d36566dd0e7b091b8aa6a56d8e6b32d349aa578a10b45_bw.jpg,2.910052,0.3439152,blackwhite,soze31,2022-04-06_10h55.41.541,ratings,2022.1.1,Win32,60.0240096
0.922846442,6.289,2.277153558,8.495,0,276,276,108,1,293_3dfdfafc0c6a54b2da7453750ac281f7718c0b3337b0a74c4563d6bd_orig.jpg,-2.574524,2.632596,original,soze31,2022-04-06_10h55.41.541,ratings,2022.1.1,Win32,60.0240096
-0.599250936,4.301,0.982771536,2.143,0,277,277,496,1,824_b1d91cc824ce0d3d383d3147da88d3d6dbaf6be918bab79e3ec8f501_circblurint.jpg,-3.645176,-1.432784,circularblurringint,soze31,2022-04-06_10h55.41.541,ratings,2022.1.1,Win32,60.0240096
0.203745318,11.046,-0.791011236,13.086,0,278,278,501,1,854_081a8409e4d6d10923b2dedcc16a3fca405fcd602e55a20d84cac69d_blur.jpg,3.088264,1.21538,blurring,soze31,2022-04-06_10h55.41.541,ratings,2022.1.1,Win32,60.0240096
0.311610487,3.075,-1.677902622,8.102,0,279,279,205,1,381_5935a9f9796adce2f1539af6c75bcdc0c80d847a2ce9b77cf59b7672_bw.jpg,-1.327432,-0.442476,blackwhite,soze31,2022-04-06_10h55.41.541,ratings,2022.1.1,Win32,60.0240096
1.474157303,3.002,-0.275655431,4.451,0,280,280,459,1,720_483c541c48959a597fcf44320941afaf8b7695105f90d65b5f6b30f2_blur.jpg,2.158732,-0.2539684,blurring,soze31,2022-04-06_10h55.41.541,ratings,2022.1.1,Win32,60.0240096
1.330337079,11.926,-0.551310861,8.143,0,281,281,196,1,379_eeaa6d9bf5a4ef205dc48bc505cf3a7f24ea86e99af9b371e03602a7_circblurint.jpg,-0.3926308,2.88936,circularblurringint,soze31,2022-04-06_10h55.41.541,ratings,2022.1.1,Win32,60.0240096
2.432958801,3.035,-3.10411985,1.685,0,282,282,32,1,60_ad52063167538de24f94d7dfd04808cb94cf8f426c40871d2f126505_edges.jpg,2.158732,0.0,edges,soze31,2022-04-06_10h55.41.541,ratings,2022.1.1,Win32,60.0240096
2.217228464,2.896,-0.383520599,5.316,0,283,283,439,1,700_59cb565f134f1afd066d7b6d936c6511b7cb76de0e9cbb5ce15124ad_bw.jpg,0.0,0.0,blackwhite,soze31,2022-04-06_10h55.41.541,ratings,2022.1.1,Win32,60.0240096
0.299625468,2.868,-1.330337079,4.218,0,284,284,95,1,258_d26019382777d2159a974a7654923e71598135ce2cd710cea1f92865_circblurext.jpg,3.497684,-0.61104,circularblurringext,soze31,2022-04-06_10h55.41.541,ratings,2022.1.1,Win32,60.0240096
0.203745318,6.85,-1.102621723,7.789,0,285,285,256,1,416_5eb54976bb41ce2a6d129ef985f792e716f010fb9b69b15f50f5d2db_circblurint.jpg,-2.58766,2.602972,circularblurringint,soze31,2022-04-06_10h55.41.541,ratings,2022.1.1,Win32,60.0240096
0.347565543,5.335,-1.498127341,4.008,0,286,286,212,1,394_8e3a0cb945144d53bd1ace04b6256237ed9dcbbd9cb83f8a4886b0e6_edges.jpg,-2.593884,2.651956,edges,soze31,2022-04-06_10h55.41.541,ratings,2022.1.1,Win32,60.0240096
3.775280899,2.535,3.85917603,4.912,0,287,287,444,1,709_69c01dcde028a2a1a913f1a2a5026ae1748484f75c89217a040c6791_orig.jpg,1.432444,-0.01935732,original,soze31,2022-04-06_10h55.41.541,ratings,2022.1.1,Win32,60.0240096
0.1917603,1.67,-0.826966292,2.954,0,288,288,508,1,855_66d893451dfd1e7615132071c6c8a82b02dc2b37781cd89400883b26_circblurint.jpg,2.69484,0.2143624,circularblurringint,soze31,2022-04-06_10h55.41.541,ratings,2022.1.1,Win32,60.0240096
0.107865169,4.65,-3.271910112,3.143,0,289,289,464,1,736_bb85db1bcda8eb34299aa5791ac65a0a7c343266eb2d6e6e328ec0e1_edges.jpg,3.650792,-0.03174604,edges,soze31,2022-04-06_10h55.41.541,ratings,2022.1.1,Win32,60.0240096
-0.371535581,9.765,1.88164794,11.315,0,290,290,432,1,694_f80f33613b268beffd6c044537cf3b44a84683d6e889bc37b8e9c34b_orig.jpg,-0.3785616,3.34728,original,soze31,2022-04-06_10h55.41.541,ratings,2022.1.1,Win32,60.0240096
-1.042696629,12.704,-0.227715356,14.341,0,291,291,533,1,915_dc9fd40a3b5d64a180833a7bac86e7556c24f681f473fe255e41f936_circblurext.jpg,-3.09294,-0.918696,circularblurringext,soze31,2022-04-06_10h55.41.541,ratings,2022.1.1,Win32,60.0240096
0.287640449,4,1.88164794,6.541,0,292,292,325,1,468_8b69b13120daebadd8a4a3166e1419f2404395cba231307a4efa9fde_bw.jpg,2.031744,0.2539684,blackwhite,soze31,2022-04-06_10h55.41.541,ratings,2022.1.1,Win32,60.0240096
1.438202247,3.936,2.385018727,8.411,0,293,293,462,1,736_bb85db1bcda8eb34299aa5791ac65a0a7c343266eb2d6e6e328ec0e1_orig.jpg,3.650792,-0.03174604,original,soze31,2022-04-06_10h55.41.541,ratings,2022.1.1,Win32,60.0240096
0.826966292,1122.54,-1.558052434,1129.354,0,294,294,27,1,59_8568373b727f29d67ba6ce4c360dd918c8b08b13495fca56bdda5e82_blur.jpg,2.064896,0.505688,blurring,soze31,2022-04-06_10h55.41.541,ratings,2022.1.1,Win32,60.0240096
-1.474157303,2.404,1.198501873,5.025,0,295,295,319,1,460_e06b3af7ff2f2bfb5f9b6e3d5dc25b9aaa40b84823fac8fd934621bd_bw.jpg,-3.430992,-1.607468,blackwhite,soze31,2022-04-06_10h55.41.541,ratings,2022.1.1,Win32,60.0240096
2.373033708,10.713,2.456928839,12.189,0,296,296,67,1,172_c641c6c56ca6b594b773084e1363c852abdb65f988d7ff802ee503f2_bw.jpg,0.379572,0.01725328,blackwhite,soze31,2022-04-06_10h55.41.541,ratings,2022.1.1,Win32,60.0240096
0.167790262,2.713,-3.367790262,1.833,0,297,297,326,1,468_8b69b13120daebadd8a4a3166e1419f2404395cba231307a4efa9fde_edges.jpg,2.031744,0.2539684,edges,soze31,2022-04-06_10h55.41.541,ratings,2022.1.1,Win32,60.0240096
-0.059925094,5.43,2.085393258,2.424,0,298,298,583,1,1225_59c67a821456f2cce3e5acf66d7f00076bd02caffc984c1eb0df794e_bw.jpg,-0.444444,3.809524,blackwhite,soze31,2022-04-06_10h55.41.541,ratings,2022.1.1,Win32,60.0240096
0.299625468,3.486,-2.564794007,2.201,0,299,299,315,1,459_46e25de472bb056cb470716d30937415f7344bfc4354d6eb710d8c9f_blur.jpg,0.03174604,0.0,blurring,soze31,2022-04-06_10h55.41.541,ratings,2022.1.1,Win32,60.0240096
2.600749064,1.341,0.431460674,3.955,0,300,300,1,1,13_771f4fcf0a212d25d6a78565e7f34cc5ddd823e7afbdc77ef063326e_bw.jpg,2.190476,0.0,blackwhite,soze31,2022-04-06_10h55.41.541,ratings,2022.1.1,Win32,60.0240096
-0.743071161,2.374,0.982771536,6.324,0,301,301,127,1,349_18d92ef5c21ca70a3dd237aad251594e1688bbe01d8cff37b89c46b8_bw.jpg,-2.74874,-1.258228,blackwhite,soze31,2022-04-06_10h55.41.541,ratings,2022.1.1,Win32,60.0240096
0.862921348,1.662,-0.934831461,4.055,0,302,302,201,1,380_34772591c787182a37724027eac6948ebc9d4064f6a601d23b923b8e_blur.jpg,2.222224,-0.063492,blurring,soze31,2022-04-06_10h55.41.541,ratings,2022.1.1,Win32,60.0240096
0.323595506,2.244,0.215730337,7.593,0,303,303,154,1,355_00a76f54934d36566dd0e7b091b8aa6a56d8e6b32d349aa578a10b45_circblurint.jpg,2.910052,0.3439152,circularblurringint,soze31,2022-04-06_10h55.41.541,ratings,2022.1.1,Win32,60.0240096
1.210486891,2.114,-0.299625468,3.522,0,304,304,563,1,1022_cf035e583d41a856836f8b0ae314ecbe79dffd9e40ef6a08cc26028f_circblurext.jpg,-0.2516452,3.05846,circularblurringext,soze31,2022-04-06_10h55.41.541,ratings,2022.1.1,Win32,60.0240096
0.215730337,11.059,0.371535581,12.556,0,305,305,94,1,258_d26019382777d2159a974a7654923e71598135ce2cd710cea1f92865_circblurint.jpg,3.497684,-0.61104,circularblurringint,soze31,2022-04-06_10h55.41.541,ratings,2022.1.1,Win32,60.0240096
1.438202247,1.637,1.22247191,3.884,0,306,306,520,1,860_05c4e22518a30d3d2add458a8fc6488f87b9b02dd8e385ded939f025_circblurint.jpg,1.955092,0.3097172,circularblurringint,soze31,2022-04-06_10h55.41.541,ratings,2022.1.1,Win32,60.0240096
-1.773782772,3.511,2.504868914,2.359,0,307,307,403,1,686_6745b57686ad5d1bd6cf3e7ed5bc0243a154f8939e88e30321dfcfdb_bw.jpg,-1.523808,3.650792,blackwhite,soze31,2022-04-06_10h55.41.541,ratings,2022.1.1,Win32,60.0240096
0.275655431,1.707,-0.203745318,4.687,0,308,308,147,1,354_e46c3ec6fb00773f64f2bcd212385f253c389808fe724b7cf8611051_blur.jpg,2.018292,0.0,blurring,soze31,2022-04-06_10h55.41.541,ratings,2022.1.1,Win32,60.0240096
1.12659176,1.84,-1.018726592,5.999,0,309,309,569,1,1037_e2eb929a6de79a63ce6cfe5321fcb74a203b134e4094932d90b01d99_circblurext.jpg,2.651956,0.0,circularblurringext,soze31,2022-04-06_10h55.41.541,ratings,2022.1.1,Win32,60.0240096
0.958801498,5.854,-0.874906367,3.499,0,310,310,341,1,492_a1a4d288d3bc486c83c3b6a835c42891989f5ba781633932298a7676_circblurext.jpg,3.406892,-0.44522,circularblurringext,soze31,2022-04-06_10h55.41.541,ratings,2022.1.1,Win32,60.0240096
-0.922846442,1.594,1.570037453,5.125,0,311,311,132,1,349_8809a67686d34844c915d7700e2ea72ad1c02ae232ae0d3cc0e458d4_orig.jpg,-3.619048,-0.2857144,original,soze31,2022-04-06_10h55.41.541,ratings,2022.1.1,Win32,60.0240096
-1.054681648,3.973,1.582022472,6.194,0,312,312,240,1,411_adfd0d5782129756321ff671d0cfb712528504c66c863df11aabd1e7_orig.jpg,-3.392332,-1.369576,original,soze31,2022-04-06_10h55.41.541,ratings,2022.1.1,Win32,60.0240096
0.299625468,2.414,-2.972284644,1.555,0,313,313,278,1,440_9bf7e8609729bf888835168834da6c3ff30b75d0d4f36e2ee6918bcc_edges.jpg,-2.284164,2.710028,edges,soze31,2022-04-06_10h55.41.541,ratings,2022.1.1,Win32,60.0240096
1.12659176,5.548,-1.653932584,4.243,0,314,314,93,1,258_d26019382777d2159a974a7654923e71598135ce2cd710cea1f92865_blur.jpg,3.497684,-0.61104,blurring,soze31,2022-04-06_10h55.41.541,ratings,2022.1.1,Win32,60.0240096
0.383520599,3.224,-0.143820225,6.043,0,315,315,286,1,440_dc6413e2b65369ee2587f4d85621742fe4ca87392d0a8ad2ea7d94e3_circblurint.jpg,-3.016216,1.69404,circularblurringint,soze31,2022-04-06_10h55.41.541,ratings,2022.1.1,Win32,60.0240096
-0.443445693,5.348,-0.886891386,6.688,0,316,316,263,1,416_8a1f874e0057d67a4e6955865ba88b2d8ce2c8b4469589307687a723_circblurext.jpg,-1.753336,3.088264,circularblurringext,soze31,2022-04-06_10h55.41.541,ratings,2022.1.1,Win32,60.0240096
0.323595506,2.244,-1.342322097,3.601,0,317,317,251,1,414_0187bdf7007109b487865b6a9d388997a6817acf052a6a7cdd5b39d9_circblurext.jpg,-2.786708,-1.133056,circularblurringext,soze31,2022-04-06_10h55.41.541,ratings,2022.1.1,Win32,60.0240096
-0.239700375,4.254,1.833707865,2.022,0,318,318,582,1,1225_59c67a821456f2cce3e5acf66d7f00076bd02caffc984c1eb0df794e_orig.jpg,-0.444444,3.809524,original,soze31,2022-04-06_10h55.41.541,ratings,2022.1.1,Win32,60.0240096
-0.85093633,4.589,2.612734082,6.46,0,319,319,406,1,686_6745b57686ad5d1bd6cf3e7ed5bc0243a154f8939e88e30321dfcfdb_circblurint.jpg,-1.523808,3.650792,circularblurringint,soze31,2022-04-06_10h55.41.541,ratings,2022.1.1,Win32,60.0240096
0.299625468,4.342,1.498127341,3.021,0,320,320,274,1,434_ba36d91204d7e578001f6a545d7501e65d209554def5a3c8b7583825_circblurint.jpg,-3.523808,1.428572,circularblurringint,soze31,2022-04-06_10h55.41.541,ratings,2022.1.1,Win32,60.0240096
2.133333333,2.118,1.605992509,3.437,0,321,321,460,1,720_483c541c48959a597fcf44320941afaf8b7695105f90d65b5f6b30f2_circblurint.jpg,2.158732,-0.2539684,circularblurringint,soze31,2022-04-06_10h55.41.541,ratings,2022.1.1,Win32,60.0240096
0.239700375,2.419,-1.641947566,3.337,0,322,322,435,1,694_f80f33613b268beffd6c044537cf3b44a84683d6e889bc37b8e9c34b_blur.jpg,-0.3785616,3.34728,blurring,soze31,2022-04-06_10h55.41.541,ratings,2022.1.1,Win32,60.0240096
0.862921348,2.445,-1.426217228,3.814,0,323,323,509,1,855_66d893451dfd1e7615132071c6c8a82b02dc2b37781cd89400883b26_circblurext.jpg,2.69484,0.2143624,circularblurringext,soze31,2022-04-06_10h55.41.541,ratings,2022.1.1,Win32,60.0240096
-0.683146067,1.28,0.143820225,7.619,0,324,324,531,1,915_dc9fd40a3b5d64a180833a7bac86e7556c24f681f473fe255e41f936_blur.jpg,-3.09294,-0.918696,blurring,soze31,2022-04-06_10h55.41.541,ratings,2022.1.1,Win32,60.0240096
2.780524345,2.08,3.679400749,3.027,0,325,325,90,1,258_d26019382777d2159a974a7654923e71598135ce2cd710cea1f92865_orig.jpg,3.497684,-0.61104,original,soze31,2022-04-06_10h55.41.541,ratings,2022.1.1,Win32,60.0240096
3.307865169,1.41,3.283895131,2.176,0,326,326,0,1,13_771f4fcf0a212d25d6a78565e7f34cc5ddd823e7afbdc77ef063326e_orig.jpg,2.190476,0.0,original,soze31,2022-04-06_10h55.41.541,ratings,2022.1.1,Win32,60.0240096
0.287640449,3.934,-3.29588015,1.4,0,327,327,110,1,293_3dfdfafc0c6a54b2da7453750ac281f7718c0b3337b0a74c4563d6bd_edges.jpg,-2.574524,2.632596,edges,soze31,2022-04-06_10h55.41.541,ratings,2022.1.1,Win32,60.0240096
-1.330337079,3.506,-1.198501873,2.272,0,328,328,14,1,39_2fafccaa4dc69045a05845f59c6b3cd2edcf7e0e0c108b24e553afe0_edges.jpg,2.022756,0.463548,edges,soze31,2022-04-06_10h55.41.541,ratings,2022.1.1,Win32,60.0240096
0.239700375,2.122,-1.366292135,4.895,0,329,329,559,1,1022_cf035e583d41a856836f8b0ae314ecbe79dffd9e40ef6a08cc26028f_bw.jpg,-0.2516452,3.05846,blackwhite,soze31,2022-04-06_10h55.41.541,ratings,2022.1.1,Win32,60.0240096
0.359550562,3.298,0.395505618,5.949,0,330,330,112,1,293_3dfdfafc0c6a54b2da7453750ac281f7718c0b3337b0a74c4563d6bd_circblurint.jpg,-2.574524,2.632596,circularblurringint,soze31,2022-04-06_10h55.41.541,ratings,2022.1.1,Win32,60.0240096
0.395505618,1.916,-2.16928839,3.051,0,331,331,105,1,284_cdcbd54fc995081ac95c8b2c37a19cebb341f61a8eb268cee1623492_blur.jpg,-1.015872,2.095236,blurring,soze31,2022-04-06_10h55.41.541,ratings,2022.1.1,Win32,60.0240096
0.826966292,3.038,-0.071910112,4.507,0,332,332,347,1,494_5c6c3b85a2734a43c24bfe337d42ffcc82b7347227804d01c784cef4_circblurext.jpg,0.03871468,0.0,circularblurringext,soze31,2022-04-06_10h55.41.541,ratings,2022.1.1,Win32,60.0240096
-1.12659176,4.53,1.869662921,3.137,0,333,333,364,1,508_a7a9519cdc7aad6844030f4e6cd96cffd1b9c49b71e20ea52789bda2_circblurint.jpg,-3.000388,-1.29694,circularblurringint,soze31,2022-04-06_10h55.41.541,ratings,2022.1.1,Win32,60.0240096
1.342322097,3.326,-2.984269663,5.168,0,334,334,458,1,720_483c541c48959a597fcf44320941afaf8b7695105f90d65b5f6b30f2_edges.jpg,2.158732,-0.2539684,edges,soze31,2022-04-06_10h55.41.541,ratings,2022.1.1,Win32,60.0240096
1.869662921,2.497,1.953558052,4.345,0,335,335,168,1,365_45a719cabbc9aa308c4fcb30d529489c6966ac4073874af84f665c61_orig.jpg,2.507936,-1.968252,original,soze31,2022-04-06_10h55.41.541,ratings,2022.1.1,Win32,60.0240096
1.078651685,4.84,-0.215730337,7.571,0,336,336,293,1,442_7449d79dae5d652af9b2429872cabdef938646ba024db2f431b3b28d_circblurext.jpg,1.619048,0.126984,circularblurringext,soze31,2022-04-06_10h55.41.541,ratings,2022.1.1,Win32,60.0240096
0.299625468,2.084,-0.814981273,11.763,0,337,337,365,1,508_a7a9519cdc7aad6844030f4e6cd96cffd1b9c49b71e20ea52789bda2_circblurext.jpg,-3.000388,-1.29694,circularblurringext,soze31,2022-04-06_10h55.41.541,ratings,2022.1.1,Win32,60.0240096
2.109363296,1.865,-1.066666667,2.89,0,338,338,21,1,48_2cc936b2483ab2944c9158e163342b874ef6c1492fd8fca08c0e096e_blur.jpg,-1.264224,-0.779604,blurring,soze31,2022-04-06_10h55.41.541,ratings,2022.1.1,Win32,60.0240096
1.713857678,2.972,0.75505618,6.327,0,339,339,25,1,59_8568373b727f29d67ba6ce4c360dd918c8b08b13495fca56bdda5e82_bw.jpg,2.064896,0.505688,blackwhite,soze31,2022-04-06_10h55.41.541,ratings,2022.1.1,Win32,60.0240096
1.054681648,2.974,0.263670412,4.232,0,340,340,447,1,709_69c01dcde028a2a1a913f1a2a5026ae1748484f75c89217a040c6791_blur.jpg,1.432444,-0.01935732,blurring,soze31,2022-04-06_10h55.41.541,ratings,2022.1.1,Win32,60.0240096
0.275655431,2.951,-3.535580524,1.419,0,341,341,158,1,358_157f8ac929713531a15b1ecf115e7b659cb90e83d675251e368d165f_edges.jpg,-3.777776,-0.571428,edges,soze31,2022-04-06_10h55.41.541,ratings,2022.1.1,Win32,60.0240096
3.895131086,5.022,4,3.061,0,342,342,114,1,332_4d584229bdae2e1782f77f0e953e528f13c3dfa79b4b94736c0310fa_orig.jpg,3.157348,0.483092,original,soze31,2022-04-06_10h55.41.541,ratings,2022.1.1,Win32,60.0240096
0.826966292,2.942,1.582022472,6.574,0,343,343,336,1,492_a1a4d288d3bc486c83c3b6a835c42891989f5ba781633932298a7676_orig.jpg,3.406892,-0.44522,original,soze31,2022-04-06_10h55.41.541,ratings,2022.1.1,Win32,60.0240096
1.378277154,2.374,-0.263670412,3.995,0,344,344,179,1,368_6507b94d7d0199f14efd3706db30c9c44b96085f84e9cc7792e3e0ae_circblurext.jpg,1.959544,0.400336,circularblurringext,soze31,2022-04-06_10h55.41.541,ratings,2022.1.1,Win32,60.0240096
1.03071161,2.55,-3.307865169,1.436,0,345,345,188,1,369_c99797771115d7627d4abe3415f814497288f91a7be1a04c17c776b9_edges.jpg,3.619824,-0.174216,edges,soze31,2022-04-06_10h55.41.541,ratings,2022.1.1,Win32,60.0240096
0.1917603,6.515,-1.605992509,2.45,0,346,346,488,1,818_877aae033c31e3bbca4486321a5307f87cf53c576c546462d3daf194_edges.jpg,-1.277584,0.619436,edges,soze31,2022-04-06_10h55.41.541,ratings,2022.1.1,Win32,60.0240096
1.282397004,6.219,1.150561798,9.758,0,347,347,277,1,440_9bf7e8609729bf888835168834da6c3ff30b75d0d4f36e2ee6918bcc_bw.jpg,-2.284164,2.710028,blackwhite,soze31,2022-04-06_10h55.41.541,ratings,2022.1.1,Win32,60.0240096
3.032209738,6.119,3.439700375,4.414,0,348,348,48,1,112_b6a4ce721c2e42943d7d8b168751d74cd2f372b1cd4fed5a4404faec_orig.jpg,2.107036,0.505688,original,soze31,2022-04-06_10h55.41.541,ratings,2022.1.1,Win32,60.0240096
0.371535581,1.825,-3.415730337,2.971,0,349,349,171,1,365_45a719cabbc9aa308c4fcb30d529489c6966ac4073874af84f665c61_blur.jpg,2.507936,-1.968252,blurring,soze31,2022-04-06_10h55.41.541,ratings,2022.1.1,Win32,60.0240096
0.65917603,4.393,-0.311610487,7.377,0,350,350,197,1,379_eeaa6d9bf5a4ef205dc48bc505cf3a7f24ea86e99af9b371e03602a7_circblurext.jpg,-0.3926308,2.88936,circularblurringext,soze31,2022-04-06_10h55.41.541,ratings,2022.1.1,Win32,60.0240096
0.635205993,2.63,-3.152059925,1.642,0,351,351,200,1,380_34772591c787182a37724027eac6948ebc9d4064f6a601d23b923b8e_edges.jpg,2.222224,-0.063492,edges,soze31,2022-04-06_10h55.41.541,ratings,2022.1.1,Win32,60.0240096
0.407490637,1.53,-2.588764045,3.064,0,352,352,429,1,694_7a14b8ab7c564dcb0f628c4de7f6cb54e4c5f6601f774bf167641c37_blur.jpg,1.819588,0.116144,blurring,soze31,2022-04-06_10h55.41.541,ratings,2022.1.1,Win32,60.0240096
1.342322097,2.287,1.797752809,3.229,0,353,353,540,1,1005_b980c0747d20935bc63cc27a9e05ce2ff5bae98f859872ec48edd7f5_orig.jpg,3.428572,-0.476192,original,soze31,2022-04-06_10h55.41.541,ratings,2022.1.1,Win32,60.0240096
0.383520599,1.305,-1.665917603,5.34,0,354,354,317,1,459_46e25de472bb056cb470716d30937415f7344bfc4354d6eb710d8c9f_circblurext.jpg,0.03174604,0.0,circularblurringext,soze31,2022-04-06_10h55.41.541,ratings,2022.1.1,Win32,60.0240096
0.155805243,1.667,2.001498127,2.661,0,355,355,553,1,1014_a5c212ca979d482cf94c2db7697aba75620391a64b030ab7ad2bbecf_bw.jpg,-3.174604,-1.374372,blackwhite,soze31,2022-04-06_10h55.41.541,ratings,2022.1.1,Win32,60.0240096
1.558052434,3.272,0.143820225,4.529,0,356,356,394,1,663_aaf52107fe3a86392530d88b34e86f9d2b6820714cad98d1e3c2cb67_circblurint.jpg,2.58766,0.0918696,circularblurringint,soze31,2022-04-06_10h55.41.541,ratings,2022.1.1,Win32,60.0240096
0.431460674,1.681,-3.463670412,2.516,0,357,357,338,1,492_a1a4d288d3bc486c83c3b6a835c42891989f5ba781633932298a7676_edges.jpg,3.406892,-0.44522,edges,soze31,2022-04-06_10h55.41.541,ratings,2022.1.1,Win32,60.0240096
1.162546816,2.427,-1.845692884,3.595,0,358,358,69,1,172_c641c6c56ca6b594b773084e1363c852abdb65f988d7ff802ee503f2_blur.jpg,0.379572,0.01725328,blurring,soze31,2022-04-06_10h55.41.541,ratings,2022.1.1,Win32,60.0240096
1.31835206,4.105,0.419475655,7.341,0,359,359,541,1,1005_b980c0747d20935bc63cc27a9e05ce2ff5bae98f859872ec48edd7f5_bw.jpg,3.428572,-0.476192,blackwhite,soze31,2022-04-06_10h55.41.541,ratings,2022.1.1,Win32,60.0240096
0.946816479,5.095,0.395505618,7.218,0,360,360,475,1,748_e519892faa7c772a0afaf9eeff36cf0e411574027ab3d9aa4947a048_bw.jpg,-1.813112,3.307432,blackwhite,soze31,2022-04-06_10h55.41.541,ratings,2022.1.1,Win32,60.0240096
2.157303371,6.942,-1.12659176,10.506,0,361,361,590,1,1228_557412d34d6a70b7c5d222e030aa485b351a4574e8ba1a3112d1d13d_edges.jpg,2.137444,0.703464,edges,soze31,2022-04-06_10h55.41.541,ratings,2022.1.1,Win32,60.0240096
-0.767041199,2.08,0.371535581,3.557,0,362,362,388,1,646_577760d718dab44c6f04d77408c5644a120065ce07a9503957d0850a_circblurint.jpg,-2.690668,2.61324,circularblurringint,soze31,2022-04-06_10h55.41.541,ratings,2022.1.1,Win32,60.0240096
-1.629962547,1.969,0.743071161,4.12,0,363,363,13,1,39_2fafccaa4dc69045a05845f59c6b3cd2edcf7e0e0c108b24e553afe0_bw.jpg,2.022756,0.463548,blackwhite,soze31,2022-04-06_10h55.41.541,ratings,2022.1.1,Win32,60.0240096
-0.419475655,2.75,-0.407490637,4.636,0,364,364,419,1,692_7d7eaf20e6de8956f0fca7500ace97a8599aa8b605a7d690cdb28724_circblurext.jpg,-2.063492,-1.26984,circularblurringext,soze31,2022-04-06_10h55.41.541,ratings,2022.1.1,Win32,60.0240096
0.299625468,1.412,-1.641947566,3.709,0,365,365,279,1,440_9bf7e8609729bf888835168834da6c3ff30b75d0d4f36e2ee6918bcc_blur.jpg,-2.284164,2.710028,blurring,soze31,2022-04-06_10h55.41.541,ratings,2022.1.1,Win32,60.0240096
0.143820225,1.338,-1.426217228,2.979,0,366,366,345,1,494_5c6c3b85a2734a43c24bfe337d42ffcc82b7347227804d01c784cef4_blur.jpg,0.03871468,0.0,blurring,soze31,2022-04-06_10h55.41.541,ratings,2022.1.1,Win32,60.0240096
-0.479400749,5.825,-0.167790262,7.028,0,367,367,574,1,1039_d64da8480fc6e94dcdc513237d600570ae0b9fe48795ac6a8b2d29a7_circblurint.jpg,-2.507936,-1.142856,circularblurringint,soze31,2022-04-06_10h55.41.541,ratings,2022.1.1,Win32,60.0240096
2.049438202,1.499,0.167790262,3.868,0,368,368,77,1,236_f645730e1eb06155418c9a571329cc7fa320654fcaaedf1048b5cc11_circblurext.jpg,2.253968,0.0,circularblurringext,soze31,2022-04-06_10h55.41.541,ratings,2022.1.1,Win32,60.0240096
1.498127341,3.984,-0.347565543,7.452,0,369,369,551,1,1010_06d15f44b979c086561137000ec070ba4cd479856f92840a7850b2bf_circblurext.jpg,0.189786,-0.189786,circularblurringext,soze31,2022-04-06_10h55.41.541,ratings,2022.1.1,Win32,60.0240096
1.246441948,11.417,0.455430712,18.959,0,370,370,4,1,13_771f4fcf0a212d25d6a78565e7f34cc5ddd823e7afbdc77ef063326e_circblurint.jpg,2.190476,0.0,circularblurringint,soze31,2022-04-06_10h55.41.541,ratings,2022.1.1,Win32,60.0240096
-0.910861423,17.172,-0.263670412,14.042,0,371,371,404,1,686_6745b57686ad5d1bd6cf3e7ed5bc0243a154f8939e88e30321dfcfdb_edges.jpg,-1.523808,3.650792,edges,soze31,2022-04-06_10h55.41.541,ratings,2022.1.1,Win32,60.0240096
1.486142322,10.44,1.042696629,11.754,0,372,372,124,1,347_27f0e47c2722605b950ccf9fa900f78271e4c3c874064ab5dacac160_circblurint.jpg,1.838948,0.3097172,circularblurringint,soze31,2022-04-06_10h55.41.541,ratings,2022.1.1,Win32,60.0240096
0.479400749,1.699,-2.049438202,2.823,0,373,373,327,1,468_8b69b13120daebadd8a4a3166e1419f2404395cba231307a4efa9fde_blur.jpg,2.031744,0.2539684,blurring,soze31,2022-04-06_10h55.41.541,ratings,2022.1.1,Win32,60.0240096
-0.874906367,1.814,-0.56329588,3.824,0,374,374,333,1,482_a1cd28915c5044c018195ab0fff10dcc95e385246b045a7cd4463ff7_blur.jpg,-3.361852,-1.555612,blurring,soze31,2022-04-06_10h55.41.541,ratings,2022.1.1,Win32,60.0240096
0.347565543,2.328,-3.188014981,1.339,0,375,375,596,1,1239_cee00457f4cfb76a407b12fd5ad714d440a4614c1e5467ee16caf618_edges.jpg,-0.03174604,0.190476,edges,soze31,2022-04-06_10h55.41.541,ratings,2022.1.1,Win32,60.0240096
0.707116105,5.644,1.761797753,8.313,0,376,376,54,1,137_0e6a04243c0a42a5e2528a2d181255ca2a4b7bd6e7978c5c2059c69f_orig.jpg,-0.95238,2.095236,original,soze31,2022-04-06_10h55.41.541,ratings,2022.1.1,Win32,60.0240096
3.176029963,9.085,2.492883895,3.974,0,377,377,589,1,1228_557412d34d6a70b7c5d222e030aa485b351a4574e8ba1a3112d1d13d_bw.jpg,2.137444,0.703464,blackwhite,soze31,2022-04-06_10h55.41.541,ratings,2022.1.1,Win32,60.0240096
2.373033708,3.202,2.037453184,6.277,0,378,378,457,1,720_483c541c48959a597fcf44320941afaf8b7695105f90d65b5f6b30f2_bw.jpg,2.158732,-0.2539684,blackwhite,soze31,2022-04-06_10h55.41.541,ratings,2022.1.1,Win32,60.0240096
1.22247191,2.697,1.605992509,5.404,0,379,379,343,1,494_5c6c3b85a2734a43c24bfe337d42ffcc82b7347227804d01c784cef4_bw.jpg,0.03871468,0.0,blackwhite,soze31,2022-04-06_10h55.41.541,ratings,2022.1.1,Win32,60.0240096
0.479400749,2.435,-3.319850187,1.631,0,380,380,182,1,369_98db62a1bdabfd1bc551180da6658005b461585cd21614633cf76470_edges.jpg,2.190476,-0.03174604,edges,soze31,2022-04-06_10h55.41.541,ratings,2022.1.1,Win32,60.0240096
3.655430712,3.407,3.523595506,2.473,0,381,381,72,1,236_f645730e1eb06155418c9a571329cc7fa320654fcaaedf1048b5cc11_orig.jpg,2.253968,0.0,original,soze31,2022-04-06_10h55.41.541,ratings,2022.1.1,Win32,60.0240096
0.299625468,2.73,-3.631460674,1.346,0,382,382,428,1,694_7a14b8ab7c564dcb0f628c4de7f6cb54e4c5f6601f774bf167641c37_edges.jpg,1.819588,0.116144,edges,soze31,2022-04-06_10h55.41.541,ratings,2022.1.1,Win32,60.0240096
3.032209738,8.39,1.498127341,10.025,0,383,383,121,1,347_27f0e47c2722605b950ccf9fa900f78271e4c3c874064ab5dacac160_bw.jpg,1.838948,0.3097172,blackwhite,soze31,2022-04-06_10h55.41.541,ratings,2022.1.1,Win32,60.0240096
0.431460674,2.985,-1.953558052,4.102,0,384,384,59,1,137_0e6a04243c0a42a5e2528a2d181255ca2a4b7bd6e7978c5c2059c69f_circblurext.jpg,-0.95238,2.095236,circularblurringext,soze31,2022-04-06_10h55.41.541,ratings,2022.1.1,Win32,60.0240096
1.258426966,1.641,-1.246441948,2.861,0,385,385,35,1,60_ad52063167538de24f94d7dfd04808cb94cf8f426c40871d2f126505_circblurext.jpg,2.158732,0.0,circularblurringext,soze31,2022-04-06_10h55.41.541,ratings,2022.1.1,Win32,60.0240096
0.239700375,1.543,-2.768539326,2.429,0,386,386,303,1,453_54f106fd1d4b65fa4aa347407127fc30d49f791e81aee3a0bbe44489_blur.jpg,2.222224,0.0,blurring,soze31,2022-04-06_10h55.41.541,ratings,2022.1.1,Win32,60.0240096
0.527340824,2.311,-3.931086142,1.426,0,387,387,8,1,28_6318543b74eeb646a1735477ebc023fdc9ac3849bc0db1957c272a26_edges.jpg,2.811244,-0.74584,edges,soze31,2022-04-06_10h55.41.541,ratings,2022.1.1,Win32,60.0240096
2.121348315,1.913,2.049438202,56.904,0,388,388,282,1,440_dc6413e2b65369ee2587f4d85621742fe4ca87392d0a8ad2ea7d94e3_orig.jpg,-3.016216,1.69404,original,soze31,2022-04-06_10h55.41.541,ratings,2022.1.1,Win32,60.0240096
2.217228464,31.8,2.648689139,15.309,0,389,389,181,1,369_98db62a1bdabfd1bc551180da6658005b461585cd21614633cf76470_bw.jpg,2.190476,-0.03174604,blackwhite,soze31,2022-04-06_10h55.41.541,ratings,2022.1.1,Win32,60.0240096
0.311610487,4.084,-2.948314607,1.812,0,390,390,254,1,416_5eb54976bb41ce2a6d129ef985f792e716f010fb9b69b15f50f5d2db_edges.jpg,-2.58766,2.602972,edges,soze31,2022-04-06_10h55.41.541,ratings,2022.1.1,Win32,60.0240096
1.450187266,1.877,0.958801498,3.847,0,391,391,409,1,687_e3b018945792a574962235c88c553b7c318c75eec2596478e8a7b877_bw.jpg,3.63918,-0.42586,blackwhite,soze31,2022-04-06_10h55.41.541,ratings,2022.1.1,Win32,60.0240096
1.054681648,26.157,1.989513109,29.678,0,392,392,490,1,818_877aae033c31e3bbca4486321a5307f87cf53c576c546462d3daf194_circblurint.jpg,-1.277584,0.619436,circularblurringint,soze31,2022-04-06_10h55.41.541,ratings,2022.1.1,Win32,60.0240096
0.311610487,2.957,-3.787265918,1.912,0,393,393,374,1,620_9674719009d75dcfeaed7f15932c43e1fd1af5e25d47b8aadd61efe2_edges.jpg,-0.561364,1.142084,edges,soze31,2022-04-06_10h55.41.541,ratings,2022.1.1,Win32,60.0240096
-2.468913858,6.605,2.552808989,2.343,0,394,394,162,1,361_b5541309527dc3c2422f45a95ebb0ed32005e6fe10d0489a1ff1fbdc_orig.jpg,-3.987612,-0.2516452,original,soze31,2022-04-06_10h55.41.541,ratings,2022.1.1,Win32,60.0240096
1.390262172,2.618,-1.342322097,3.45,0,395,395,23,1,48_2cc936b2483ab2944c9158e163342b874ef6c1492fd8fca08c0e096e_circblurext.jpg,-1.264224,-0.779604,circularblurringext,soze31,2022-04-06_10h55.41.541,ratings,2022.1.1,Win32,60.0240096
-0.731086142,6.488,2.912359551,9.326,0,396,396,324,1,468_8b69b13120daebadd8a4a3166e1419f2404395cba231307a4efa9fde_orig.jpg,2.031744,0.2539684,original,soze31,2022-04-06_10h55.41.541,ratings,2022.1.1,Win32,60.0240096
0.359550562,3.076,-3.919101124,1.262,0,397,397,350,1,498_305b74cdc4784d9d25e72724302e5402def70177ea31ae7e25fab66b_edges.jpg,3.04762,-0.444444,edges,soze31,2022-04-06_10h55.41.541,ratings,2022.1.1,Win32,60.0240096
0.251685393,2.936,-3.811235955,1.571,0,398,398,536,1,986_a77edb21e78bc3a6aa7406517824596b3496ad6c657b6befb84cf370_edges.jpg,-3.906316,-0.60496,edges,soze31,2022-04-06_10h55.41.541,ratings,2022.1.1,Win32,60.0240096
1.270411985,33.178,-0.479400749,55.78,0,399,399,285,1,440_dc6413e2b65369ee2587f4d85621742fe4ca87392d0a8ad2ea7d94e3_blur.jpg,-3.016216,1.69404,blurring,soze31,2022-04-06_10h55.41.541,ratings,2022.1.1,Win32,60.0240096
1.534082397,1.62,0.071910112,3.585,0,400,400,253,1,416_5eb54976bb41ce2a6d129ef985f792e716f010fb9b69b15f50f5d2db_bw.jpg,-2.58766,2.602972,blackwhite,soze31,2022-04-06_10h55.41.541,ratings,2022.1.1,Win32,60.0240096
2.193258427,6.871,1.929588015,8.758,0,401,401,461,1,720_483c541c48959a597fcf44320941afaf8b7695105f90d65b5f6b30f2_circblurext.jpg,2.158732,-0.2539684,circularblurringext,soze31,2022-04-06_10h55.41.541,ratings,2022.1.1,Win32,60.0240096
1.701872659,1.916,-0.179775281,4.586,0,402,402,117,1,332_4d584229bdae2e1782f77f0e953e528f13c3dfa79b4b94736c0310fa_blur.jpg,3.157348,0.483092,blurring,soze31,2022-04-06_10h55.41.541,ratings,2022.1.1,Win32,60.0240096
0.227715356,7.254,-1.210486891,15.139,0,403,403,455,1,716_2ab64478147184c4df720a52cf621875addc9007cb2967e4a9a88909_circblurext.jpg,2.428484,0.0,circularblurringext,soze31,2022-04-06_10h55.41.541,ratings,2022.1.1,Win32,60.0240096
2.121348315,1.937,1.570037453,32.569,0,404,404,148,1,354_e46c3ec6fb00773f64f2bcd212385f253c389808fe724b7cf8611051_circblurint.jpg,2.018292,0.0,circularblurringint,soze31,2022-04-06_10h55.41.541,ratings,2022.1.1,Win32,60.0240096
-0.970786517,30.089,1.294382022,34.147,0,405,405,571,1,1039_d64da8480fc6e94dcdc513237d600570ae0b9fe48795ac6a8b2d29a7_bw.jpg,-2.507936,-1.142856,blackwhite,soze31,2022-04-06_10h55.41.541,ratings,2022.1.1,Win32,60.0240096
1.282397004,2.702,1.162546816,5.388,0,406,406,349,1,498_305b74cdc4784d9d25e72724302e5402def70177ea31ae7e25fab66b_bw.jpg,3.04762,-0.444444,blackwhite,soze31,2022-04-06_10h55.41.541,ratings,2022.1.1,Win32,60.0240096
-1.078651685,1.312,3.235955056,2.85,0,407,407,360,1,508_a7a9519cdc7aad6844030f4e6cd96cffd1b9c49b71e20ea52789bda2_orig.jpg,-3.000388,-1.29694,original,soze31,2022-04-06_10h55.41.541,ratings,2022.1.1,Win32,60.0240096
-0.323595506,22.012,2.205243446,3.742,0,408,408,234,1,410_9633c4ff6e8888fcfca59a60ca86e9606d3e0736500a254101bdf295_orig.jpg,-0.3677892,2.981028,original,soze31,2022-04-06_10h55.41.541,ratings,2022.1.1,Win32,60.0240096
2.744569288,1.718,2.936329588,3.943,0,409,409,565,1,1037_e2eb929a6de79a63ce6cfe5321fcb74a203b134e4094932d90b01d99_bw.jpg,2.651956,0.0,blackwhite,soze31,2022-04-06_10h55.41.541,ratings,2022.1.1,Win32,60.0240096
0.263670412,3.225,1.31835206,6.462,0,410,410,328,1,468_8b69b13120daebadd8a4a3166e1419f2404395cba231307a4efa9fde_circblurint.jpg,2.031744,0.2539684,circularblurringint,soze31,2022-04-06_10h55.41.541,ratings,2022.1.1,Win32,60.0240096
-0.539325843,5.165,2.876404494,11.079,0,411,411,414,1,692_7d7eaf20e6de8956f0fca7500ace97a8599aa8b605a7d690cdb28724_orig.jpg,-2.063492,-1.26984,original,soze31,2022-04-06_10h55.41.541,ratings,2022.1.1,Win32,60.0240096
0.275655431,1.557,-3.211985019,2.423,0,412,412,513,1,858_2f6539ee36aba48c38dc716d4f7c3ae93367d6ddf23ab41745d4172c_blur.jpg,0.0623832,0.176752,blurring,soze31,2022-04-06_10h55.41.541,ratings,2022.1.1,Win32,60.0240096
-0.251685393,5.866,0.527340824,7.024,0,413,413,235,1,410_9633c4ff6e8888fcfca59a60ca86e9606d3e0736500a254101bdf295_bw.jpg,-0.3677892,2.981028,blackwhite,soze31,2022-04-06_10h55.41.541,ratings,2022.1.1,Win32,60.0240096
2.277153558,1.347,1.605992509,4.996,0,414,414,37,1,82_43f4d5aec7c2e5bd495473f6708a0f2d47c9fe34e1fe9436646cb036_bw.jpg,2.022756,0.505688,blackwhite,soze31,2022-04-06_10h55.41.541,ratings,2022.1.1,Win32,60.0240096
1.150561798,3.104,0.838951311,4.561,0,415,415,39,1,82_43f4d5aec7c2e5bd495473f6708a0f2d47c9fe34e1fe9436646cb036_blur.jpg,2.022756,0.505688,blurring,soze31,2022-04-06_10h55.41.541,ratings,2022.1.1,Win32,60.0240096
1.558052434,47.418,0.071910112,50.165,0,416,416,29,1,59_8568373b727f29d67ba6ce4c360dd918c8b08b13495fca56bdda5e82_circblurext.jpg,2.064896,0.505688,circularblurringext,soze31,2022-04-06_10h55.41.541,ratings,2022.1.1,Win32,60.0240096
0.419475655,1.326,-1.378277154,8.423,0,417,417,425,1,692_e3e3bf88684fbbcdb9849a4147f9e2fcd39b0f083554a829aca4e9fa_circblurext.jpg,-0.44522,3.135888,circularblurringext,soze31,2022-04-06_10h55.41.541,ratings,2022.1.1,Win32,60.0240096
-0.09588015,10.928,-0.767041199,16.329,0,418,418,316,1,459_46e25de472bb056cb470716d30937415f7344bfc4354d6eb710d8c9f_circblurint.jpg,0.03174604,0.0,circularblurringint,soze31,2022-04-06_10h55.41.541,ratings,2022.1.1,Win32,60.0240096
-0.982771536,3.816,-0.970786517,9.086,0,419,419,323,1,460_e06b3af7ff2f2bfb5f9b6e3d5dc25b9aaa40b84823fac8fd934621bd_circblurext.jpg,-3.430992,-1.607468,circularblurringext,soze31,2022-04-06_10h55.41.541,ratings,2022.1.1,Win32,60.0240096
0.215730337,28.438,2.025468165,25.953,0,420,420,552,1,1014_a5c212ca979d482cf94c2db7697aba75620391a64b030ab7ad2bbecf_orig.jpg,-3.174604,-1.374372,original,soze31,2022-04-06_10h55.41.541,ratings,2022.1.1,Win32,60.0240096
1.066666667,4.804,-0.862921348,5.634,0,421,421,51,1,112_b6a4ce721c2e42943d7d8b168751d74cd2f372b1cd4fed5a4404faec_blur.jpg,2.107036,0.505688,blurring,soze31,2022-04-06_10h55.41.541,ratings,2022.1.1,Win32,60.0240096
1.054681648,2.275,-0.143820225,10.984,0,422,422,3,1,13_771f4fcf0a212d25d6a78565e7f34cc5ddd823e7afbdc77ef063326e_blur.jpg,2.190476,0.0,blurring,soze31,2022-04-06_10h55.41.541,ratings,2022.1.1,Win32,60.0240096
0.203745318,2.737,-3.475655431,1.686,0,423,423,176,1,368_6507b94d7d0199f14efd3706db30c9c44b96085f84e9cc7792e3e0ae_edges.jpg,1.959544,0.400336,edges,soze31,2022-04-06_10h55.41.541,ratings,2022.1.1,Win32,60.0240096
1.282397004,1.799,2.025468165,67.728,0,424,424,300,1,453_54f106fd1d4b65fa4aa347407127fc30d49f791e81aee3a0bbe44489_orig.jpg,2.222224,0.0,original,soze31,2022-04-06_10h55.41.541,ratings,2022.1.1,Win32,60.0240096
-0.85093633,27.568,0.071910112,31.312,0,425,425,537,1,986_a77edb21e78bc3a6aa7406517824596b3496ad6c657b6befb84cf370_blur.jpg,-3.906316,-0.60496,blurring,soze31,2022-04-06_10h55.41.541,ratings,2022.1.1,Win32,60.0240096
-1.186516854,3.709,1.833707865,2.202,0,426,426,16,1,39_2fafccaa4dc69045a05845f59c6b3cd2edcf7e0e0c108b24e553afe0_circblurint.jpg,2.022756,0.463548,circularblurringint,soze31,2022-04-06_10h55.41.541,ratings,2022.1.1,Win32,60.0240096
3.223970037,6.043,3.475655431,4.699,0,427,427,144,1,354_e46c3ec6fb00773f64f2bcd212385f253c389808fe724b7cf8611051_orig.jpg,2.018292,0.0,original,soze31,2022-04-06_10h55.41.541,ratings,2022.1.1,Win32,60.0240096
2.432958801,14.04,2.828464419,12.182,0,428,428,78,1,242_85283f6935a89812ab229dcad9ba184529c9242ac3106d768ecf3ab3_orig.jpg,2.14918,-0.2949852,original,soze31,2022-04-06_10h55.41.541,ratings,2022.1.1,Win32,60.0240096
0.335580524,3.306,1.12659176,4.922,0,429,429,454,1,716_2ab64478147184c4df720a52cf621875addc9007cb2967e4a9a88909_circblurint.jpg,2.428484,0.0,circularblurringint,soze31,2022-04-06_10h55.41.541,ratings,2022.1.1,Win32,60.0240096
0.239700375,9.811,0.539325843,11.689,0,430,430,280,1,440_9bf7e8609729bf888835168834da6c3ff30b75d0d4f36e2ee6918bcc_circblurint.jpg,-2.284164,2.710028,circularblurringint,soze31,2022-04-06_10h55.41.541,ratings,2022.1.1,Win32,60.0240096
0.239700375,2.355,-3.631460674,1.434,0,431,431,128,1,349_18d92ef5c21ca70a3dd237aad251594e1688bbe01d8cff37b89c46b8_edges.jpg,-2.74874,-1.258228,edges,soze31,2022-04-06_10h55.41.541,ratings,2022.1.1,Win32,60.0240096
-0.731086142,4.196,-2.301123596,1.564,0,432,432,362,1,508_a7a9519cdc7aad6844030f4e6cd96cffd1b9c49b71e20ea52789bda2_edges.jpg,-3.000388,-1.29694,edges,soze31,2022-04-06_10h55.41.541,ratings,2022.1.1,Win32,60.0240096
-0.527340824,8.173,-0.275655431,16.378,0,433,433,515,1,858_2f6539ee36aba48c38dc716d4f7c3ae93367d6ddf23ab41745d4172c_circblurext.jpg,0.0623832,0.176752,circularblurringext,soze31,2022-04-06_10h55.41.541,ratings,2022.1.1,Win32,60.0240096
1.845692884,1.822,0.862921348,3.04,0,434,434,412,1,687_e3b018945792a574962235c88c553b7c318c75eec2596478e8a7b877_circblurint.jpg,3.63918,-0.42586,circularblurringint,soze31,2022-04-06_10h55.41.541,ratings,2022.1.1,Win32,60.0240096
-0.719101124,1.603,2.504868914,2.258,0,435,435,331,1,482_a1cd28915c5044c018195ab0fff10dcc95e385246b045a7cd4463ff7_bw.jpg,-3.361852,-1.555612,blackwhite,soze31,2022-04-06_10h55.41.541,ratings,2022.1.1,Win32,60.0240096
0.623220974,6.849,-3.751310861,1.513,0,436,436,500,1,854_081a8409e4d6d10923b2dedcc16a3fca405fcd602e55a20d84cac69d_edges.jpg,3.088264,1.21538,edges,soze31,2022-04-06_10h55.41.541,ratings,2022.1.1,Win32,60.0240096
-0.731086142,7.404,-0.023970037,9.635,0,437,437,131,1,349_18d92ef5c21ca70a3dd237aad251594e1688bbe01d8cff37b89c46b8_circblurext.jpg,-2.74874,-1.258228,circularblurringext,soze31,2022-04-06_10h55.41.541,ratings,2022.1.1,Win32,60.0240096
0.946816479,4.952,-1.174531835,81.212,0,438,438,155,1,355_00a76f54934d36566dd0e7b091b8aa6a56d8e6b32d349aa578a10b45_circblurext.jpg,2.910052,0.3439152,circularblurringext,soze31,2022-04-06_10h55.41.541,ratings,2022.1.1,Win32,60.0240096
0.707116105,17.743,2.456928839,31.859,0,439,439,342,1,494_5c6c3b85a2734a43c24bfe337d42ffcc82b7347227804d01c784cef4_orig.jpg,0.03871468,0.0,original,soze31,2022-04-06_10h55.41.541,ratings,2022.1.1,Win32,60.0240096
0.275655431,7.613,-1.210486891,4.171,0,440,440,585,1,1225_59c67a821456f2cce3e5acf66d7f00076bd02caffc984c1eb0df794e_blur.jpg,-0.444444,3.809524,blurring,soze31,2022-04-06_10h55.41.541,ratings,2022.1.1,Win32,60.0240096
0.251685393,3.414,-3.835205993,1.795,0,441,441,422,1,692_e3e3bf88684fbbcdb9849a4147f9e2fcd39b0f083554a829aca4e9fa_edges.jpg,-0.44522,3.135888,edges,soze31,2022-04-06_10h55.41.541,ratings,2022.1.1,Win32,60.0240096
1.174531835,2.007,2.420973783,3.852,0,442,442,426,1,694_7a14b8ab7c564dcb0f628c4de7f6cb54e4c5f6601f774bf167641c37_orig.jpg,1.819588,0.116144,original,soze31,2022-04-06_10h55.41.541,ratings,2022.1.1,Win32,60.0240096
2.109363296,1.335,2.480898876,2.099,0,443,443,547,1,1010_06d15f44b979c086561137000ec070ba4cd479856f92840a7850b2bf_bw.jpg,0.189786,-0.189786,blackwhite,soze31,2022-04-06_10h55.41.541,ratings,2022.1.1,Win32,60.0240096
3.76329588,1.46,3.463670412,2.349,0,444,444,288,1,442_7449d79dae5d652af9b2429872cabdef938646ba024db2f431b3b28d_orig.jpg,1.619048,0.126984,original,soze31,2022-04-06_10h55.41.541,ratings,2022.1.1,Win32,60.0240096
1.12659176,7.482,0.239700375,5.472,0,445,445,55,1,137_0e6a04243c0a42a5e2528a2d181255ca2a4b7bd6e7978c5c2059c69f_bw.jpg,-0.95238,2.095236,blackwhite,soze31,2022-04-06_10h55.41.541,ratings,2022.1.1,Win32,60.0240096
-0.982771536,8.998,1.605992509,7.403,0,446,446,244,1,411_adfd0d5782129756321ff671d0cfb712528504c66c863df11aabd1e7_circblurint.jpg,-3.392332,-1.369576,circularblurringint,soze31,2022-04-06_10h55.41.541,ratings,2022.1.1,Win32,60.0240096
1.438202247,1.892,2.373033708,14.047,0,447,447,498,1,854_081a8409e4d6d10923b2dedcc16a3fca405fcd602e55a20d84cac69d_orig.jpg,3.088264,1.21538,original,soze31,2022-04-06_10h55.41.541,ratings,2022.1.1,Win32,60.0240096
0.287640449,12.703,0.143820225,13.559,0,448,448,208,1,381_5935a9f9796adce2f1539af6c75bcdc0c80d847a2ce9b77cf59b7672_circblurint.jpg,-1.327432,-0.442476,circularblurringint,soze31,2022-04-06_10h55.41.541,ratings,2022.1.1,Win32,60.0240096
0.263670412,4.552,-3.76329588,1.544,0,449,449,386,1,646_577760d718dab44c6f04d77408c5644a120065ce07a9503957d0850a_edges.jpg,-2.690668,2.61324,edges,soze31,2022-04-06_10h55.41.541,ratings,2022.1.1,Win32,60.0240096
-0.431460674,1.662,2.984269663,2.22,0,450,450,126,1,349_18d92ef5c21ca70a3dd237aad251594e1688bbe01d8cff37b89c46b8_orig.jpg,-2.74874,-1.258228,original,soze31,2022-04-06_10h55.41.541,ratings,2022.1.1,Win32,60.0240096
2.912359551,1.532,3.116104869,2.342,0,451,451,120,1,347_27f0e47c2722605b950ccf9fa900f78271e4c3c874064ab5dacac160_orig.jpg,1.838948,0.3097172,original,soze31,2022-04-06_10h55.41.541,ratings,2022.1.1,Win32,60.0240096
0.46741573,2.568,-3.751310861,1.371,0,452,452,284,1,440_dc6413e2b65369ee2587f4d85621742fe4ca87392d0a8ad2ea7d94e3_edges.jpg,-3.016216,1.69404,edges,soze31,2022-04-06_10h55.41.541,ratings,2022.1.1,Win32,60.0240096
