valence_slider.response,valence_slider.rt,arousal_slider.response,arousal_slider.rt,trials.thisRepN,trials.thisTrialN,trials.thisN,trials.thisIndex,trials.ran,img_name,vm,am,manipulation,participant,date,expName,psychopyVersion,OS,frameRate
0.623130084,50.0152,-0.39280695,47.997,0,0,0,479,1,748_e519892faa7c772a0afaf9eeff36cf0e411574027ab3d9aa4947a048_circblurext.jpg,-1.813112,3.307432,circularblurringext,thko3,2022-05-29_09h19.27.031,ratings,2022.1.1,MacIntel,30.01560812
1.407270682,12.0169,0.570729002,7.8638,0,1,1,147,1,354_e46c3ec6fb00773f64f2bcd212385f253c389808fe724b7cf8611051_blur.jpg,2.018292,0.0,blurring,thko3,2022-05-29_09h19.27.031,ratings,2022.1.1,MacIntel,30.01560812
-1.332908373,11.2594,-1.343270634,10.1198,0,2,2,476,1,748_e519892faa7c772a0afaf9eeff36cf0e411574027ab3d9aa4947a048_edges.jpg,-1.813112,3.307432,edges,thko3,2022-05-29_09h19.27.031,ratings,2022.1.1,MacIntel,30.01560812
-1.332535762,15.8599,-1.376211331,17.0299,0,3,3,136,1,349_8809a67686d34844c915d7700e2ea72ad1c02ae232ae0d3cc0e458d4_circblurint.jpg,-3.619048,-0.2857144,circularblurringint,thko3,2022-05-29_09h19.27.031,ratings,2022.1.1,MacIntel,30.01560812
0.558967733,7.8058,0.574266527,3.0027,0,4,4,81,1,242_85283f6935a89812ab229dcad9ba184529c9242ac3106d768ecf3ab3_blur.jpg,2.14918,-0.2949852,blurring,thko3,2022-05-29_09h19.27.031,ratings,2022.1.1,MacIntel,30.01560812
0.49647642,8.5574,-0.414069815,5.9513,0,5,5,44,1,92_5d20d78a8e57e628c6930676473a4e0a485e715841efd6286c660020_edges.jpg,2.126984,0.0,edges,thko3,2022-05-29_09h19.27.031,ratings,2022.1.1,MacIntel,30.01560812
-0.386000501,9.9232,-1.353628323,4.3022,0,6,6,16,1,39_2fafccaa4dc69045a05845f59c6b3cd2edcf7e0e0c108b24e553afe0_circblurint.jpg,2.022756,0.463548,circularblurringint,thko3,2022-05-29_09h19.27.031,ratings,2022.1.1,MacIntel,30.01560812
0.354193641,7.306,0.03109364,5.5788,0,7,7,222,1,403_57ac47f43882fc031a6067b1a388c0b2cbe8708dcbd2ff1019932eff_orig.jpg,-3.333332,-1.396824,original,thko3,2022-05-29_09h19.27.031,ratings,2022.1.1,MacIntel,30.01560812
-0.359252472,5.7186,-0.321102071,6.5148,0,8,8,224,1,403_57ac47f43882fc031a6067b1a388c0b2cbe8708dcbd2ff1019932eff_edges.jpg,-3.333332,-1.396824,edges,thko3,2022-05-29_09h19.27.031,ratings,2022.1.1,MacIntel,30.01560812
0.389495735,18.2668,-1.062290606,20.6978,0,9,9,268,1,431_ab5a1dbbe9292ac7f74e276cdabcd372e2c1f852ff34bf7cc6646ef8_circblurint.jpg,3.102584,0.354334,circularblurringint,thko3,2022-05-29_09h19.27.031,ratings,2022.1.1,MacIntel,30.01560812
-0.435252672,2.9415,-0.452796279,3.7432,0,10,10,215,1,394_8e3a0cb945144d53bd1ace04b6256237ed9dcbbd9cb83f8a4886b0e6_circblurext.jpg,-2.593884,2.651956,circularblurringext,thko3,2022-05-29_09h19.27.031,ratings,2022.1.1,MacIntel,30.01560812
-0.066518033,9.7945,-0.230324277,10.6183,0,11,11,183,1,369_98db62a1bdabfd1bc551180da6658005b461585cd21614633cf76470_blur.jpg,2.190476,-0.03174604,blurring,thko3,2022-05-29_09h19.27.031,ratings,2022.1.1,MacIntel,30.01560812
-0.467856189,3.0326,-0.396647364,3.7317,0,12,12,253,1,416_5eb54976bb41ce2a6d129ef985f792e716f010fb9b69b15f50f5d2db_bw.jpg,-2.58766,2.602972,blackwhite,thko3,2022-05-29_09h19.27.031,ratings,2022.1.1,MacIntel,30.01560812
-0.227602841,15.1194,-0.205495313,15.9315,0,13,13,453,1,716_2ab64478147184c4df720a52cf621875addc9007cb2967e4a9a88909_blur.jpg,2.428484,0.0,blurring,thko3,2022-05-29_09h19.27.031,ratings,2022.1.1,MacIntel,30.01560812
-1.300207702,66.2464,-1.278853399,67.0539,0,14,14,113,1,293_3dfdfafc0c6a54b2da7453750ac281f7718c0b3337b0a74c4563d6bd_circblurext.jpg,-2.574524,2.632596,circularblurringext,thko3,2022-05-29_09h19.27.031,ratings,2022.1.1,MacIntel,30.01560812
-1.253472375,15.0971,-1.07507027,31.4622,0,15,15,532,1,915_dc9fd40a3b5d64a180833a7bac86e7556c24f681f473fe255e41f936_circblurint.jpg,-3.09294,-0.918696,circularblurringint,thko3,2022-05-29_09h19.27.031,ratings,2022.1.1,MacIntel,30.01560812
-0.331050573,5.4049,0.633695795,3.0143,0,16,16,450,1,716_2ab64478147184c4df720a52cf621875addc9007cb2967e4a9a88909_orig.jpg,2.428484,0.0,original,thko3,2022-05-29_09h19.27.031,ratings,2022.1.1,MacIntel,30.01560812
0.244293784,6.88,-0.484866024,9.5941,0,17,17,181,1,369_98db62a1bdabfd1bc551180da6658005b461585cd21614633cf76470_bw.jpg,2.190476,-0.03174604,blackwhite,thko3,2022-05-29_09h19.27.031,ratings,2022.1.1,MacIntel,30.01560812
-0.444827419,3.046,-0.359631942,3.9154,0,18,18,524,1,877_cab3efed0c9ff4552037df6c1ea4ea9713f915c94592a14dbf2799da_edges.jpg,3.174604,0.3174604,edges,thko3,2022-05-29_09h19.27.031,ratings,2022.1.1,MacIntel,30.01560812
-0.549255828,1.6812,-0.448730697,2.3897,0,19,19,32,1,60_ad52063167538de24f94d7dfd04808cb94cf8f426c40871d2f126505_edges.jpg,2.158732,0.0,edges,thko3,2022-05-29_09h19.27.031,ratings,2022.1.1,MacIntel,30.01560812
0.129291663,7.1811,-0.405227718,2.8155,0,20,20,150,1,355_00a76f54934d36566dd0e7b091b8aa6a56d8e6b32d349aa578a10b45_orig.jpg,2.910052,0.3439152,original,thko3,2022-05-29_09h19.27.031,ratings,2022.1.1,MacIntel,30.01560812
-0.431588276,1.9256,-0.379939276,2.6146,0,21,21,99,1,267_792043debad81ce271cec5b3c3bd9d264efc13f362bec9c7a3f72fe7_blur.jpg,1.980616,0.2107036,blurring,thko3,2022-05-29_09h19.27.031,ratings,2022.1.1,MacIntel,30.01560812
-1.35435183,20.3669,0.429417757,19.2421,0,22,22,269,1,431_ab5a1dbbe9292ac7f74e276cdabcd372e2c1f852ff34bf7cc6646ef8_circblurext.jpg,3.102584,0.354334,circularblurringext,thko3,2022-05-29_09h19.27.031,ratings,2022.1.1,MacIntel,30.01560812
-0.432515234,1.8493,-0.395663258,2.6166,0,23,23,543,1,1005_b980c0747d20935bc63cc27a9e05ce2ff5bae98f859872ec48edd7f5_blur.jpg,3.428572,-0.476192,blurring,thko3,2022-05-29_09h19.27.031,ratings,2022.1.1,MacIntel,30.01560812
-0.416844972,2.4385,-0.420297916,3.1427,0,24,24,506,1,855_66d893451dfd1e7615132071c6c8a82b02dc2b37781cd89400883b26_edges.jpg,2.69484,0.2143624,edges,thko3,2022-05-29_09h19.27.031,ratings,2022.1.1,MacIntel,30.01560812
-0.153754874,16.9542,0.923714513,3.455,0,25,25,70,1,172_c641c6c56ca6b594b773084e1363c852abdb65f988d7ff802ee503f2_circblurint.jpg,0.379572,0.01725328,circularblurringint,thko3,2022-05-29_09h19.27.031,ratings,2022.1.1,MacIntel,30.01560812
-1.0501853,2.4587,0.360458317,6.5231,0,26,26,531,1,915_dc9fd40a3b5d64a180833a7bac86e7556c24f681f473fe255e41f936_blur.jpg,-3.09294,-0.918696,blurring,thko3,2022-05-29_09h19.27.031,ratings,2022.1.1,MacIntel,30.01560812
0.410574581,5.6716,1.382518297,3.0586,0,27,27,228,1,407_578d31d32e806706dde2563213f130b90e621abfed0e47ecabd85d27_orig.jpg,3.5873,-0.444444,original,thko3,2022-05-29_09h19.27.031,ratings,2022.1.1,MacIntel,30.01560812
-0.568781363,1.8304,-0.335710504,2.4721,0,28,28,206,1,381_5935a9f9796adce2f1539af6c75bcdc0c80d847a2ce9b77cf59b7672_edges.jpg,-1.327432,-0.442476,edges,thko3,2022-05-29_09h19.27.031,ratings,2022.1.1,MacIntel,30.01560812
-1.183183649,2.8494,-1.039475573,4.4379,0,29,29,539,1,986_a77edb21e78bc3a6aa7406517824596b3496ad6c657b6befb84cf370_circblurext.jpg,-3.906316,-0.60496,circularblurringext,thko3,2022-05-29_09h19.27.031,ratings,2022.1.1,MacIntel,30.01560812
-0.085000027,12.735,0.319349882,11.8512,0,30,30,17,1,39_2fafccaa4dc69045a05845f59c6b3cd2edcf7e0e0c108b24e553afe0_circblurext.jpg,2.022756,0.463548,circularblurringext,thko3,2022-05-29_09h19.27.031,ratings,2022.1.1,MacIntel,30.01560812
-0.273210047,8.2349,0.338802266,3.5081,0,31,31,198,1,380_34772591c787182a37724027eac6948ebc9d4064f6a601d23b923b8e_orig.jpg,2.222224,-0.063492,original,thko3,2022-05-29_09h19.27.031,ratings,2022.1.1,MacIntel,30.01560812
0.061894678,1.6713,1.136988951,2.6155,0,32,32,40,1,82_43f4d5aec7c2e5bd495473f6708a0f2d47c9fe34e1fe9436646cb036_circblurint.jpg,2.022756,0.505688,circularblurringint,thko3,2022-05-29_09h19.27.031,ratings,2022.1.1,MacIntel,30.01560812
-0.482080581,1.5066,-0.401028408,2.1474,0,33,33,321,1,460_e06b3af7ff2f2bfb5f9b6e3d5dc25b9aaa40b84823fac8fd934621bd_blur.jpg,-3.430992,-1.607468,blurring,thko3,2022-05-29_09h19.27.031,ratings,2022.1.1,MacIntel,30.01560812
-0.999965025,2.4915,-0.262160855,3.4201,0,34,34,277,1,440_9bf7e8609729bf888835168834da6c3ff30b75d0d4f36e2ee6918bcc_bw.jpg,-2.284164,2.710028,blackwhite,thko3,2022-05-29_09h19.27.031,ratings,2022.1.1,MacIntel,30.01560812
-0.424912128,1.6509,-0.291063402,2.3558,0,35,35,408,1,687_e3b018945792a574962235c88c553b7c318c75eec2596478e8a7b877_orig.jpg,3.63918,-0.42586,original,thko3,2022-05-29_09h19.27.031,ratings,2022.1.1,MacIntel,30.01560812
-0.537475129,1.3808,-0.427017498,2.052,0,36,36,248,1,414_0187bdf7007109b487865b6a9d388997a6817acf052a6a7cdd5b39d9_edges.jpg,-2.786708,-1.133056,edges,thko3,2022-05-29_09h19.27.031,ratings,2022.1.1,MacIntel,30.01560812
-1.208762408,1.6753,-1.02088271,7.9037,0,37,37,571,1,1039_d64da8480fc6e94dcdc513237d600570ae0b9fe48795ac6a8b2d29a7_bw.jpg,-2.507936,-1.142856,blackwhite,thko3,2022-05-29_09h19.27.031,ratings,2022.1.1,MacIntel,30.01560812
-0.559607802,1.5163,-0.420222479,2.2234,0,38,38,33,1,60_ad52063167538de24f94d7dfd04808cb94cf8f426c40871d2f126505_blur.jpg,2.158732,0.0,blurring,thko3,2022-05-29_09h19.27.031,ratings,2022.1.1,MacIntel,30.01560812
-0.350464096,2.02,-1.179680414,4.2111,0,39,39,359,1,500_3b520c7f352afa1a9f8c07e56cc0588cdc04d25ff6e7b602b5e280cb_circblurext.jpg,-0.8328,3.11766,circularblurringext,thko3,2022-05-29_09h19.27.031,ratings,2022.1.1,MacIntel,30.01560812
-2.160148478,2.5017,-2.089466566,5.652,0,40,40,241,1,411_adfd0d5782129756321ff671d0cfb712528504c66c863df11aabd1e7_bw.jpg,-3.392332,-1.369576,blackwhite,thko3,2022-05-29_09h19.27.031,ratings,2022.1.1,MacIntel,30.01560812
0.17522919,2.1457,0.538091195,2.8125,0,41,41,124,1,347_27f0e47c2722605b950ccf9fa900f78271e4c3c874064ab5dacac160_circblurint.jpg,1.838948,0.3097172,circularblurringint,thko3,2022-05-29_09h19.27.031,ratings,2022.1.1,MacIntel,30.01560812
0.5810364,1.6807,0.963789693,2.3471,0,42,42,336,1,492_a1a4d288d3bc486c83c3b6a835c42891989f5ba781633932298a7676_orig.jpg,3.406892,-0.44522,original,thko3,2022-05-29_09h19.27.031,ratings,2022.1.1,MacIntel,30.01560812
-0.507795355,1.5527,-0.406985622,2.2041,0,43,43,196,1,379_eeaa6d9bf5a4ef205dc48bc505cf3a7f24ea86e99af9b371e03602a7_circblurint.jpg,-0.3926308,2.88936,circularblurringint,thko3,2022-05-29_09h19.27.031,ratings,2022.1.1,MacIntel,30.01560812
1.102073184,6.048,1.680030394,3.051,0,44,44,595,1,1239_cee00457f4cfb76a407b12fd5ad714d440a4614c1e5467ee16caf618_bw.jpg,-0.03174604,0.190476,blackwhite,thko3,2022-05-29_09h19.27.031,ratings,2022.1.1,MacIntel,30.01560812
-1.172742522,2.7399,-1.131986125,3.4921,0,45,45,454,1,716_2ab64478147184c4df720a52cf621875addc9007cb2967e4a9a88909_circblurint.jpg,2.428484,0.0,circularblurringint,thko3,2022-05-29_09h19.27.031,ratings,2022.1.1,MacIntel,30.01560812
-0.358576971,1.4631,-0.435542989,2.0762,0,46,46,349,1,498_305b74cdc4784d9d25e72724302e5402def70177ea31ae7e25fab66b_bw.jpg,3.04762,-0.444444,blackwhite,thko3,2022-05-29_09h19.27.031,ratings,2022.1.1,MacIntel,30.01560812
-0.581774765,2.9064,-0.263713022,3.6114,0,47,47,377,1,620_9674719009d75dcfeaed7f15932c43e1fd1af5e25d47b8aadd61efe2_circblurext.jpg,-0.561364,1.142084,circularblurringext,thko3,2022-05-29_09h19.27.031,ratings,2022.1.1,MacIntel,30.01560812
-0.501801566,1.4865,-0.367221332,2.0834,0,48,48,57,1,137_0e6a04243c0a42a5e2528a2d181255ca2a4b7bd6e7978c5c2059c69f_blur.jpg,-0.95238,2.095236,blurring,thko3,2022-05-29_09h19.27.031,ratings,2022.1.1,MacIntel,30.01560812
-0.472975599,1.3289,-0.379550662,2.0457,0,49,49,585,1,1225_59c67a821456f2cce3e5acf66d7f00076bd02caffc984c1eb0df794e_blur.jpg,-0.444444,3.809524,blurring,thko3,2022-05-29_09h19.27.031,ratings,2022.1.1,MacIntel,30.01560812
-0.526581382,1.9493,-0.383400221,2.638,0,50,50,158,1,358_157f8ac929713531a15b1ecf115e7b659cb90e83d675251e368d165f_edges.jpg,-3.777776,-0.571428,edges,thko3,2022-05-29_09h19.27.031,ratings,2022.1.1,MacIntel,30.01560812
1.880630322,5.4189,2.13616189,4.2855,0,51,51,36,1,82_43f4d5aec7c2e5bd495473f6708a0f2d47c9fe34e1fe9436646cb036_orig.jpg,2.022756,0.505688,original,thko3,2022-05-29_09h19.27.031,ratings,2022.1.1,MacIntel,30.01560812
-1.228646839,8.5416,-0.544761629,6.7631,0,52,52,108,1,293_3dfdfafc0c6a54b2da7453750ac281f7718c0b3337b0a74c4563d6bd_orig.jpg,-2.574524,2.632596,original,thko3,2022-05-29_09h19.27.031,ratings,2022.1.1,MacIntel,30.01560812
-0.372491615,1.3096,-0.29323735,1.9717,0,53,53,153,1,355_00a76f54934d36566dd0e7b091b8aa6a56d8e6b32d349aa578a10b45_blur.jpg,2.910052,0.3439152,blurring,thko3,2022-05-29_09h19.27.031,ratings,2022.1.1,MacIntel,30.01560812
-2.135165211,5.6377,0.445229748,6.5062,0,54,54,14,1,39_2fafccaa4dc69045a05845f59c6b3cd2edcf7e0e0c108b24e553afe0_edges.jpg,2.022756,0.463548,edges,thko3,2022-05-29_09h19.27.031,ratings,2022.1.1,MacIntel,30.01560812
1.96660874,3.0483,2.251908092,3.7727,0,55,55,459,1,720_483c541c48959a597fcf44320941afaf8b7695105f90d65b5f6b30f2_blur.jpg,2.158732,-0.2539684,blurring,thko3,2022-05-29_09h19.27.031,ratings,2022.1.1,MacIntel,30.01560812
1.317182105,1.582,1.521472717,2.2876,0,56,56,141,1,353_44e285740cb41818482ac93fc5fbd72c18029444a1d7506c9fc053e7_blur.jpg,-3.232676,-0.87108,blurring,thko3,2022-05-29_09h19.27.031,ratings,2022.1.1,MacIntel,30.01560812
-0.38791385,1.4765,-0.526831695,2.1734,0,57,57,297,1,449_9c1e990a3480e5b51430fe76b0188e69ba2468fd6a866b88b2d0dd75_blur.jpg,0.095238,0.03174604,blurring,thko3,2022-05-29_09h19.27.031,ratings,2022.1.1,MacIntel,30.01560812
-0.441313897,2.961,-0.361570437,3.5776,0,58,58,59,1,137_0e6a04243c0a42a5e2528a2d181255ca2a4b7bd6e7978c5c2059c69f_circblurext.jpg,-0.95238,2.095236,circularblurringext,thko3,2022-05-29_09h19.27.031,ratings,2022.1.1,MacIntel,30.01560812
0.359295906,2.5396,1.14065106,3.2726,0,59,59,231,1,407_578d31d32e806706dde2563213f130b90e621abfed0e47ecabd85d27_blur.jpg,3.5873,-0.444444,blurring,thko3,2022-05-29_09h19.27.031,ratings,2022.1.1,MacIntel,30.01560812
-0.686544926,1.7545,-0.416887262,2.4121,0,60,60,11,1,28_6318543b74eeb646a1735477ebc023fdc9ac3849bc0db1957c272a26_circblurext.jpg,2.811244,-0.74584,circularblurringext,thko3,2022-05-29_09h19.27.031,ratings,2022.1.1,MacIntel,30.01560812
-0.506277477,1.9199,-0.524727468,3.0308,0,61,61,554,1,1014_a5c212ca979d482cf94c2db7697aba75620391a64b030ab7ad2bbecf_edges.jpg,-3.174604,-1.374372,edges,thko3,2022-05-29_09h19.27.031,ratings,2022.1.1,MacIntel,30.01560812
-0.664415681,1.5912,-0.415665416,2.3537,0,62,62,326,1,468_8b69b13120daebadd8a4a3166e1419f2404395cba231307a4efa9fde_edges.jpg,2.031744,0.2539684,edges,thko3,2022-05-29_09h19.27.031,ratings,2022.1.1,MacIntel,30.01560812
1.382445146,1.6081,1.71903003,2.3861,0,63,63,233,1,407_578d31d32e806706dde2563213f130b90e621abfed0e47ecabd85d27_circblurext.jpg,3.5873,-0.444444,circularblurringext,thko3,2022-05-29_09h19.27.031,ratings,2022.1.1,MacIntel,30.01560812
-0.371420642,1.209,-0.376788079,1.8391,0,64,64,54,1,137_0e6a04243c0a42a5e2528a2d181255ca2a4b7bd6e7978c5c2059c69f_orig.jpg,-0.95238,2.095236,original,thko3,2022-05-29_09h19.27.031,ratings,2022.1.1,MacIntel,30.01560812
1.502436377,1.7936,1.259703904,2.6941,0,65,65,282,1,440_dc6413e2b65369ee2587f4d85621742fe4ca87392d0a8ad2ea7d94e3_orig.jpg,-3.016216,1.69404,original,thko3,2022-05-29_09h19.27.031,ratings,2022.1.1,MacIntel,30.01560812
2.077477844,1.9856,2.096590764,2.6909,0,66,66,72,1,236_f645730e1eb06155418c9a571329cc7fa320654fcaaedf1048b5cc11_orig.jpg,2.253968,0.0,original,thko3,2022-05-29_09h19.27.031,ratings,2022.1.1,MacIntel,30.01560812
-2.942456878,5.0052,1.520647485,5.8569,0,67,67,384,1,646_577760d718dab44c6f04d77408c5644a120065ce07a9503957d0850a_orig.jpg,-2.690668,2.61324,original,thko3,2022-05-29_09h19.27.031,ratings,2022.1.1,MacIntel,30.01560812
-0.50949611,1.6475,-0.278794649,2.2793,0,68,68,276,1,440_9bf7e8609729bf888835168834da6c3ff30b75d0d4f36e2ee6918bcc_orig.jpg,-2.284164,2.710028,original,thko3,2022-05-29_09h19.27.031,ratings,2022.1.1,MacIntel,30.01560812
-0.487094836,2.8868,-0.289112334,3.76,0,69,69,63,1,156_08e8cf8f04630e9213e610580de73f51572d1d589878648700bae4dc_blur.jpg,2.222224,0.0,blurring,thko3,2022-05-29_09h19.27.031,ratings,2022.1.1,MacIntel,30.01560812
-0.277197906,1.8495,-0.311981087,2.5544,0,70,70,368,1,616_05a637f5281666f53d4e2ef69351485fc21d629b37ee2006b2076eb6_edges.jpg,-2.380952,-0.832364,edges,thko3,2022-05-29_09h19.27.031,ratings,2022.1.1,MacIntel,30.01560812
-0.455202253,1.3849,-0.327929093,2.059,0,71,71,303,1,453_54f106fd1d4b65fa4aa347407127fc30d49f791e81aee3a0bbe44489_blur.jpg,2.222224,0.0,blurring,thko3,2022-05-29_09h19.27.031,ratings,2022.1.1,MacIntel,30.01560812
-0.527012286,4.5669,-0.397901214,5.2388,0,72,72,271,1,434_ba36d91204d7e578001f6a545d7501e65d209554def5a3c8b7583825_bw.jpg,-3.523808,1.428572,blackwhite,thko3,2022-05-29_09h19.27.031,ratings,2022.1.1,MacIntel,30.01560812
-0.424438934,1.44,-0.446171564,1.9947,0,73,73,503,1,854_081a8409e4d6d10923b2dedcc16a3fca405fcd602e55a20d84cac69d_circblurext.jpg,3.088264,1.21538,circularblurringext,thko3,2022-05-29_09h19.27.031,ratings,2022.1.1,MacIntel,30.01560812
-0.383563667,5.5796,-0.353743307,6.2093,0,74,74,299,1,449_9c1e990a3480e5b51430fe76b0188e69ba2468fd6a866b88b2d0dd75_circblurext.jpg,0.095238,0.03174604,circularblurringext,thko3,2022-05-29_09h19.27.031,ratings,2022.1.1,MacIntel,30.01560812
-0.429912667,1.1792,-0.389962071,1.7479,0,75,75,122,1,347_27f0e47c2722605b950ccf9fa900f78271e4c3c874064ab5dacac160_edges.jpg,1.838948,0.3097172,edges,thko3,2022-05-29_09h19.27.031,ratings,2022.1.1,MacIntel,30.01560812
-0.543650652,1.5776,-0.677791981,2.2457,0,76,76,274,1,434_ba36d91204d7e578001f6a545d7501e65d209554def5a3c8b7583825_circblurint.jpg,-3.523808,1.428572,circularblurringint,thko3,2022-05-29_09h19.27.031,ratings,2022.1.1,MacIntel,30.01560812
2.15164356,4.2108,2.14291119,2.3107,0,77,77,19,1,48_2cc936b2483ab2944c9158e163342b874ef6c1492fd8fca08c0e096e_bw.jpg,-1.264224,-0.779604,blackwhite,thko3,2022-05-29_09h19.27.031,ratings,2022.1.1,MacIntel,30.01560812
-0.603118782,2.0116,-0.39404594,2.6573,0,78,78,504,1,855_66d893451dfd1e7615132071c6c8a82b02dc2b37781cd89400883b26_orig.jpg,2.69484,0.2143624,original,thko3,2022-05-29_09h19.27.031,ratings,2022.1.1,MacIntel,30.01560812
-0.472369819,1.4808,-0.37907404,2.2632,0,79,79,441,1,700_59cb565f134f1afd066d7b6d936c6511b7cb76de0e9cbb5ce15124ad_blur.jpg,0.0,0.0,blurring,thko3,2022-05-29_09h19.27.031,ratings,2022.1.1,MacIntel,30.01560812
-0.47309104,1.2472,-0.370145076,1.891,0,80,80,164,1,361_b5541309527dc3c2422f45a95ebb0ed32005e6fe10d0489a1ff1fbdc_edges.jpg,-3.987612,-0.2516452,edges,thko3,2022-05-29_09h19.27.031,ratings,2022.1.1,MacIntel,30.01560812
-0.467057246,1.607,-0.402525712,2.2735,0,81,81,418,1,692_7d7eaf20e6de8956f0fca7500ace97a8599aa8b605a7d690cdb28724_circblurint.jpg,-2.063492,-1.26984,circularblurringint,thko3,2022-05-29_09h19.27.031,ratings,2022.1.1,MacIntel,30.01560812
2.375399129,2.9045,2.415757769,3.5754,0,82,82,145,1,354_e46c3ec6fb00773f64f2bcd212385f253c389808fe724b7cf8611051_bw.jpg,2.018292,0.0,blackwhite,thko3,2022-05-29_09h19.27.031,ratings,2022.1.1,MacIntel,30.01560812
0.982413417,3.0458,1.295921526,3.883,0,83,83,189,1,369_c99797771115d7627d4abe3415f814497288f91a7be1a04c17c776b9_blur.jpg,3.619824,-0.174216,blurring,thko3,2022-05-29_09h19.27.031,ratings,2022.1.1,MacIntel,30.01560812
1.783955892,3.1477,1.843089129,2.1565,0,84,84,37,1,82_43f4d5aec7c2e5bd495473f6708a0f2d47c9fe34e1fe9436646cb036_bw.jpg,2.022756,0.505688,blackwhite,thko3,2022-05-29_09h19.27.031,ratings,2022.1.1,MacIntel,30.01560812
0.769520735,1.3948,0.952091288,2.0518,0,85,85,573,1,1039_d64da8480fc6e94dcdc513237d600570ae0b9fe48795ac6a8b2d29a7_blur.jpg,-2.507936,-1.142856,blurring,thko3,2022-05-29_09h19.27.031,ratings,2022.1.1,MacIntel,30.01560812
-0.991405244,1.6934,-0.762956598,2.4114,0,86,86,323,1,460_e06b3af7ff2f2bfb5f9b6e3d5dc25b9aaa40b84823fac8fd934621bd_circblurext.jpg,-3.430992,-1.607468,circularblurringext,thko3,2022-05-29_09h19.27.031,ratings,2022.1.1,MacIntel,30.01560812
-1.264458703,3.8201,-0.636999009,5.7262,0,87,87,235,1,410_9633c4ff6e8888fcfca59a60ca86e9606d3e0736500a254101bdf295_bw.jpg,-0.3677892,2.981028,blackwhite,thko3,2022-05-29_09h19.27.031,ratings,2022.1.1,MacIntel,30.01560812
1.043874905,1.3305,1.074293044,1.8712,0,88,88,473,1,741_2b218fb015e3da83db73cacdb52e61e0c2534c1fe255bb1c5c74d47f_circblurext.jpg,3.140096,0.448584,circularblurringext,thko3,2022-05-29_09h19.27.031,ratings,2022.1.1,MacIntel,30.01560812
-0.440760695,1.3722,-0.286600063,2.0388,0,89,89,510,1,858_2f6539ee36aba48c38dc716d4f7c3ae93367d6ddf23ab41745d4172c_orig.jpg,0.0623832,0.176752,original,thko3,2022-05-29_09h19.27.031,ratings,2022.1.1,MacIntel,30.01560812
-0.417138718,1.6057,-0.241815803,2.2793,0,90,90,515,1,858_2f6539ee36aba48c38dc716d4f7c3ae93367d6ddf23ab41745d4172c_circblurext.jpg,0.0623832,0.176752,circularblurringext,thko3,2022-05-29_09h19.27.031,ratings,2022.1.1,MacIntel,30.01560812
-2.40721399,8.7968,1.562957192,9.5884,0,91,91,325,1,468_8b69b13120daebadd8a4a3166e1419f2404395cba231307a4efa9fde_bw.jpg,2.031744,0.2539684,blackwhite,thko3,2022-05-29_09h19.27.031,ratings,2022.1.1,MacIntel,30.01560812
-0.458840359,1.3966,-0.417819934,1.9816,0,92,92,480,1,759_95e1c46ed9a337414d5c8eada8fa8b9632e18751f5ce6ed587806e91_orig.jpg,2.126984,0.0,original,thko3,2022-05-29_09h19.27.031,ratings,2022.1.1,MacIntel,30.01560812
1.150241809,1.9826,1.247702609,2.737,0,93,93,5,1,13_771f4fcf0a212d25d6a78565e7f34cc5ddd823e7afbdc77ef063326e_circblurext.jpg,2.190476,0.0,circularblurringext,thko3,2022-05-29_09h19.27.031,ratings,2022.1.1,MacIntel,30.01560812
-0.581118694,1.3196,-0.43116766,2.1052,0,94,94,168,1,365_45a719cabbc9aa308c4fcb30d529489c6966ac4073874af84f665c61_orig.jpg,2.507936,-1.968252,original,thko3,2022-05-29_09h19.27.031,ratings,2022.1.1,MacIntel,30.01560812
-0.399624828,1.8053,-0.29484781,2.4056,0,95,95,487,1,818_877aae033c31e3bbca4486321a5307f87cf53c576c546462d3daf194_bw.jpg,-1.277584,0.619436,blackwhite,thko3,2022-05-29_09h19.27.031,ratings,2022.1.1,MacIntel,30.01560812
0.902223051,1.8581,1.264393553,2.4581,0,96,96,581,1,1061_665178b9cb0bc869cc2e2b68def4838db04e66f9531098fb75875a09_circblurext.jpg,0.3492064,-0.3174604,circularblurringext,thko3,2022-05-29_09h19.27.031,ratings,2022.1.1,MacIntel,30.01560812
-0.344470306,4.4254,-0.362356807,5.1032,0,97,97,85,1,243_beddb302dcb21071d88c8d2cab07002050d36b3001ef28f89389fa56_bw.jpg,-0.3450656,-0.2070392,blackwhite,thko3,2022-05-29_09h19.27.031,ratings,2022.1.1,MacIntel,30.01560812
-2.350673033,5.901,0.698094743,6.6194,0,98,98,327,1,468_8b69b13120daebadd8a4a3166e1419f2404395cba231307a4efa9fde_blur.jpg,2.031744,0.2539684,blurring,thko3,2022-05-29_09h19.27.031,ratings,2022.1.1,MacIntel,30.01560812
-1.949305159,3.5762,1.458134455,5.9006,0,99,99,334,1,482_a1cd28915c5044c018195ab0fff10dcc95e385246b045a7cd4463ff7_circblurint.jpg,-3.361852,-1.555612,circularblurringint,thko3,2022-05-29_09h19.27.031,ratings,2022.1.1,MacIntel,30.01560812
1.050506477,1.5742,1.423273551,2.1582,0,100,100,429,1,694_7a14b8ab7c564dcb0f628c4de7f6cb54e4c5f6601f774bf167641c37_blur.jpg,1.819588,0.116144,blurring,thko3,2022-05-29_09h19.27.031,ratings,2022.1.1,MacIntel,30.01560812
3.922954659,3.2175,3.914242862,4.2361,0,101,101,577,1,1061_665178b9cb0bc869cc2e2b68def4838db04e66f9531098fb75875a09_bw.jpg,0.3492064,-0.3174604,blackwhite,thko3,2022-05-29_09h19.27.031,ratings,2022.1.1,MacIntel,30.01560812
-1.229952123,3.8882,-1.085578833,4.6732,0,102,102,529,1,915_dc9fd40a3b5d64a180833a7bac86e7556c24f681f473fe255e41f936_bw.jpg,-3.09294,-0.918696,blackwhite,thko3,2022-05-29_09h19.27.031,ratings,2022.1.1,MacIntel,30.01560812
-2.835239596,2.0603,1.992258365,2.6602,0,103,103,324,1,468_8b69b13120daebadd8a4a3166e1419f2404395cba231307a4efa9fde_orig.jpg,2.031744,0.2539684,original,thko3,2022-05-29_09h19.27.031,ratings,2022.1.1,MacIntel,30.01560812
-0.603235366,1.5931,-0.313408669,2.1747,0,104,104,372,1,620_9674719009d75dcfeaed7f15932c43e1fd1af5e25d47b8aadd61efe2_orig.jpg,-0.561364,1.142084,original,thko3,2022-05-29_09h19.27.031,ratings,2022.1.1,MacIntel,30.01560812
-0.9729884,2.1183,-1.037027309,2.8264,0,105,105,135,1,349_8809a67686d34844c915d7700e2ea72ad1c02ae232ae0d3cc0e458d4_blur.jpg,-3.619048,-0.2857144,blurring,thko3,2022-05-29_09h19.27.031,ratings,2022.1.1,MacIntel,30.01560812
-0.577721756,2.2483,-0.443977042,2.815,0,106,106,130,1,349_18d92ef5c21ca70a3dd237aad251594e1688bbe01d8cff37b89c46b8_circblurint.jpg,-2.74874,-1.258228,circularblurringint,thko3,2022-05-29_09h19.27.031,ratings,2022.1.1,MacIntel,30.01560812
0.129603697,3.951,-0.236878127,4.5732,0,107,107,185,1,369_98db62a1bdabfd1bc551180da6658005b461585cd21614633cf76470_circblurext.jpg,2.190476,-0.03174604,circularblurringext,thko3,2022-05-29_09h19.27.031,ratings,2022.1.1,MacIntel,30.01560812
-0.645669659,3.0413,-0.559287768,3.7528,0,108,108,29,1,59_8568373b727f29d67ba6ce4c360dd918c8b08b13495fca56bdda5e82_circblurext.jpg,2.064896,0.505688,circularblurringext,thko3,2022-05-29_09h19.27.031,ratings,2022.1.1,MacIntel,30.01560812
-0.453435205,1.4112,-0.363506646,1.9787,0,109,109,220,1,396_208259ea431d47bb7f3946213eb099834eb119756ce304ad473d4d9f_circblurint.jpg,2.857144,-0.3809524,circularblurringint,thko3,2022-05-29_09h19.27.031,ratings,2022.1.1,MacIntel,30.01560812
-0.273739247,4.7158,-0.345942465,5.3775,0,110,110,316,1,459_46e25de472bb056cb470716d30937415f7344bfc4354d6eb710d8c9f_circblurint.jpg,0.03174604,0.0,circularblurringint,thko3,2022-05-29_09h19.27.031,ratings,2022.1.1,MacIntel,30.01560812
0.664247663,1.1948,1.382735463,1.8245,0,111,111,41,1,82_43f4d5aec7c2e5bd495473f6708a0f2d47c9fe34e1fe9436646cb036_circblurext.jpg,2.022756,0.505688,circularblurringext,thko3,2022-05-29_09h19.27.031,ratings,2022.1.1,MacIntel,30.01560812
3.838991315,1.5137,3.949128912,3.378,0,112,112,576,1,1061_665178b9cb0bc869cc2e2b68def4838db04e66f9531098fb75875a09_orig.jpg,0.3492064,-0.3174604,original,thko3,2022-05-29_09h19.27.031,ratings,2022.1.1,MacIntel,30.01560812
2.254660389,1.8558,2.43668917,2.6775,0,113,113,289,1,442_7449d79dae5d652af9b2429872cabdef938646ba024db2f431b3b28d_bw.jpg,1.619048,0.126984,blackwhite,thko3,2022-05-29_09h19.27.031,ratings,2022.1.1,MacIntel,30.01560812
-0.174175362,3.5447,-0.250315005,4.3797,0,114,114,394,1,663_aaf52107fe3a86392530d88b34e86f9d2b6820714cad98d1e3c2cb67_circblurint.jpg,2.58766,0.0918696,circularblurringint,thko3,2022-05-29_09h19.27.031,ratings,2022.1.1,MacIntel,30.01560812
-0.394207101,1.9931,-0.367240763,2.6388,0,115,115,489,1,818_877aae033c31e3bbca4486321a5307f87cf53c576c546462d3daf194_blur.jpg,-1.277584,0.619436,blurring,thko3,2022-05-29_09h19.27.031,ratings,2022.1.1,MacIntel,30.01560812
1.332925518,1.4584,1.580104185,2.0895,0,116,116,431,1,694_7a14b8ab7c564dcb0f628c4de7f6cb54e4c5f6601f774bf167641c37_circblurext.jpg,1.819588,0.116144,circularblurringext,thko3,2022-05-29_09h19.27.031,ratings,2022.1.1,MacIntel,30.01560812
-1.953115856,3.4595,1.018691617,4.1823,0,117,117,586,1,1225_59c67a821456f2cce3e5acf66d7f00076bd02caffc984c1eb0df794e_circblurint.jpg,-0.444444,3.809524,circularblurringint,thko3,2022-05-29_09h19.27.031,ratings,2022.1.1,MacIntel,30.01560812
-0.450313725,1.9805,-0.400453489,2.5214,0,118,118,197,1,379_eeaa6d9bf5a4ef205dc48bc505cf3a7f24ea86e99af9b371e03602a7_circblurext.jpg,-0.3926308,2.88936,circularblurringext,thko3,2022-05-29_09h19.27.031,ratings,2022.1.1,MacIntel,30.01560812
0.733790023,2.4521,-0.37225959,3.5169,0,119,119,43,1,92_5d20d78a8e57e628c6930676473a4e0a485e715841efd6286c660020_bw.jpg,2.126984,0.0,blackwhite,thko3,2022-05-29_09h19.27.031,ratings,2022.1.1,MacIntel,30.01560812
1.239918912,1.4071,1.49398518,2.0427,0,120,120,76,1,236_f645730e1eb06155418c9a571329cc7fa320654fcaaedf1048b5cc11_circblurint.jpg,2.253968,0.0,circularblurringint,thko3,2022-05-29_09h19.27.031,ratings,2022.1.1,MacIntel,30.01560812
-0.42964521,2.3986,-0.054105266,1.6458,0,121,121,116,1,332_4d584229bdae2e1782f77f0e953e528f13c3dfa79b4b94736c0310fa_edges.jpg,3.157348,0.483092,edges,thko3,2022-05-29_09h19.27.031,ratings,2022.1.1,MacIntel,30.01560812
-1.225289906,3.1391,-0.921346257,4.6742,0,122,122,331,1,482_a1cd28915c5044c018195ab0fff10dcc95e385246b045a7cd4463ff7_bw.jpg,-3.361852,-1.555612,blackwhite,thko3,2022-05-29_09h19.27.031,ratings,2022.1.1,MacIntel,30.01560812
-0.410744885,1.3045,-0.261141316,1.9387,0,123,123,128,1,349_18d92ef5c21ca70a3dd237aad251594e1688bbe01d8cff37b89c46b8_edges.jpg,-2.74874,-1.258228,edges,thko3,2022-05-29_09h19.27.031,ratings,2022.1.1,MacIntel,30.01560812
-0.487850346,1.0451,-0.300280396,1.613,0,124,124,290,1,442_7449d79dae5d652af9b2429872cabdef938646ba024db2f431b3b28d_edges.jpg,1.619048,0.126984,edges,thko3,2022-05-29_09h19.27.031,ratings,2022.1.1,MacIntel,30.01560812
-0.557008665,2.7767,-0.299170562,3.5744,0,125,125,284,1,440_dc6413e2b65369ee2587f4d85621742fe4ca87392d0a8ad2ea7d94e3_edges.jpg,-3.016216,1.69404,edges,thko3,2022-05-29_09h19.27.031,ratings,2022.1.1,MacIntel,30.01560812
-0.414962483,5.9787,-0.456456102,6.7855,0,126,126,6,1,28_6318543b74eeb646a1735477ebc023fdc9ac3849bc0db1957c272a26_orig.jpg,2.811244,-0.74584,original,thko3,2022-05-29_09h19.27.031,ratings,2022.1.1,MacIntel,30.01560812
-0.363870114,1.2568,-0.407583401,1.8273,0,127,127,171,1,365_45a719cabbc9aa308c4fcb30d529489c6966ac4073874af84f665c61_blur.jpg,2.507936,-1.968252,blurring,thko3,2022-05-29_09h19.27.031,ratings,2022.1.1,MacIntel,30.01560812
0.510169326,1.5663,-0.299859779,2.1969,0,128,128,46,1,92_5d20d78a8e57e628c6930676473a4e0a485e715841efd6286c660020_circblurint.jpg,2.126984,0.0,circularblurringint,thko3,2022-05-29_09h19.27.031,ratings,2022.1.1,MacIntel,30.01560812
-0.44501944,9.6777,-0.45614864,10.2891,0,129,129,223,1,403_57ac47f43882fc031a6067b1a388c0b2cbe8708dcbd2ff1019932eff_bw.jpg,-3.333332,-1.396824,blackwhite,thko3,2022-05-29_09h19.27.031,ratings,2022.1.1,MacIntel,30.01560812
-0.443751874,3.8575,-0.372683636,4.4274,0,130,130,286,1,440_dc6413e2b65369ee2587f4d85621742fe4ca87392d0a8ad2ea7d94e3_circblurint.jpg,-3.016216,1.69404,circularblurringint,thko3,2022-05-29_09h19.27.031,ratings,2022.1.1,MacIntel,30.01560812
-0.330522516,1.3732,-0.469169474,2.1044,0,131,131,436,1,694_f80f33613b268beffd6c044537cf3b44a84683d6e889bc37b8e9c34b_circblurint.jpg,-0.3785616,3.34728,circularblurringint,thko3,2022-05-29_09h19.27.031,ratings,2022.1.1,MacIntel,30.01560812
-0.489477951,1.2396,-0.443761018,1.771,0,132,132,464,1,736_bb85db1bcda8eb34299aa5791ac65a0a7c343266eb2d6e6e328ec0e1_edges.jpg,3.650792,-0.03174604,edges,thko3,2022-05-29_09h19.27.031,ratings,2022.1.1,MacIntel,30.01560812
1.176737239,2.7883,-0.443883317,3.5383,0,133,133,546,1,1010_06d15f44b979c086561137000ec070ba4cd479856f92840a7850b2bf_orig.jpg,0.189786,-0.189786,original,thko3,2022-05-29_09h19.27.031,ratings,2022.1.1,MacIntel,30.01560812
-1.462716663,1.5488,0.85785255,4.9564,0,134,134,355,1,500_3b520c7f352afa1a9f8c07e56cc0588cdc04d25ff6e7b602b5e280cb_bw.jpg,-0.8328,3.11766,blackwhite,thko3,2022-05-29_09h19.27.031,ratings,2022.1.1,MacIntel,30.01560812
-1.977063583,1.4084,1.099260309,1.9568,0,135,135,587,1,1225_59c67a821456f2cce3e5acf66d7f00076bd02caffc984c1eb0df794e_circblurext.jpg,-0.444444,3.809524,circularblurringext,thko3,2022-05-29_09h19.27.031,ratings,2022.1.1,MacIntel,30.01560812
-0.446523602,2.049,-0.292707007,2.8028,0,136,136,275,1,434_ba36d91204d7e578001f6a545d7501e65d209554def5a3c8b7583825_circblurext.jpg,-3.523808,1.428572,circularblurringext,thko3,2022-05-29_09h19.27.031,ratings,2022.1.1,MacIntel,30.01560812
-0.407167356,1.4365,-0.462485324,2.0051,0,137,137,344,1,494_5c6c3b85a2734a43c24bfe337d42ffcc82b7347227804d01c784cef4_edges.jpg,0.03871468,0.0,edges,thko3,2022-05-29_09h19.27.031,ratings,2022.1.1,MacIntel,30.01560812
0.861588953,6.3701,0.801756212,6.9405,0,138,138,52,1,112_b6a4ce721c2e42943d7d8b168751d74cd2f372b1cd4fed5a4404faec_circblurint.jpg,2.107036,0.505688,circularblurringint,thko3,2022-05-29_09h19.27.031,ratings,2022.1.1,MacIntel,30.01560812
-0.510049313,1.6386,-0.390973609,5.3576,0,139,139,259,1,416_8a1f874e0057d67a4e6955865ba88b2d8ce2c8b4469589307687a723_bw.jpg,-1.753336,3.088264,blackwhite,thko3,2022-05-29_09h19.27.031,ratings,2022.1.1,MacIntel,30.01560812
0.883402735,1.3085,1.235367564,1.8504,0,140,140,563,1,1022_cf035e583d41a856836f8b0ae314ecbe79dffd9e40ef6a08cc26028f_circblurext.jpg,-0.2516452,3.05846,circularblurringext,thko3,2022-05-29_09h19.27.031,ratings,2022.1.1,MacIntel,30.01560812
-0.40990708,1.374,-0.420071605,1.963,0,141,141,230,1,407_578d31d32e806706dde2563213f130b90e621abfed0e47ecabd85d27_edges.jpg,3.5873,-0.444444,edges,thko3,2022-05-29_09h19.27.031,ratings,2022.1.1,MacIntel,30.01560812
-0.425741931,1.1751,-0.497690265,1.7081,0,142,142,68,1,172_c641c6c56ca6b594b773084e1363c852abdb65f988d7ff802ee503f2_edges.jpg,0.379572,0.01725328,edges,thko3,2022-05-29_09h19.27.031,ratings,2022.1.1,MacIntel,30.01560812
0.539740516,3.3781,-0.325230516,4.4589,0,143,143,409,1,687_e3b018945792a574962235c88c553b7c318c75eec2596478e8a7b877_bw.jpg,3.63918,-0.42586,blackwhite,thko3,2022-05-29_09h19.27.031,ratings,2022.1.1,MacIntel,30.01560812
-0.444815989,1.3866,-0.420428215,2.0303,0,144,144,94,1,258_d26019382777d2159a974a7654923e71598135ce2cd710cea1f92865_circblurint.jpg,3.497684,-0.61104,circularblurringint,thko3,2022-05-29_09h19.27.031,ratings,2022.1.1,MacIntel,30.01560812
-0.336647748,0.999,-0.314438495,1.5422,0,145,145,578,1,1061_665178b9cb0bc869cc2e2b68def4838db04e66f9531098fb75875a09_edges.jpg,0.3492064,-0.3174604,edges,thko3,2022-05-29_09h19.27.031,ratings,2022.1.1,MacIntel,30.01560812
-0.509361239,1.044,-0.254419448,1.6484,0,146,146,422,1,692_e3e3bf88684fbbcdb9849a4147f9e2fcd39b0f083554a829aca4e9fa_edges.jpg,-0.44522,3.135888,edges,thko3,2022-05-29_09h19.27.031,ratings,2022.1.1,MacIntel,30.01560812
1.386822761,2.2609,1.585079579,2.9431,0,147,147,138,1,353_44e285740cb41818482ac93fc5fbd72c18029444a1d7506c9fc053e7_orig.jpg,-3.232676,-0.87108,original,thko3,2022-05-29_09h19.27.031,ratings,2022.1.1,MacIntel,30.01560812
0.986235544,1.2867,1.441300639,1.8457,0,148,148,190,1,369_c99797771115d7627d4abe3415f814497288f91a7be1a04c17c776b9_circblurint.jpg,3.619824,-0.174216,circularblurringint,thko3,2022-05-29_09h19.27.031,ratings,2022.1.1,MacIntel,30.01560812
1.548935108,1.2122,1.581042572,1.7881,0,149,149,34,1,60_ad52063167538de24f94d7dfd04808cb94cf8f426c40871d2f126505_circblurint.jpg,2.158732,0.0,circularblurringint,thko3,2022-05-29_09h19.27.031,ratings,2022.1.1,MacIntel,30.01560812
-0.466346312,1.4126,-0.313169787,1.9934,0,150,150,160,1,358_157f8ac929713531a15b1ecf115e7b659cb90e83d675251e368d165f_circblurint.jpg,-3.777776,-0.571428,circularblurringint,thko3,2022-05-29_09h19.27.031,ratings,2022.1.1,MacIntel,30.01560812
-0.360320016,2.3607,-0.160888215,2.9599,0,151,151,596,1,1239_cee00457f4cfb76a407b12fd5ad714d440a4614c1e5467ee16caf618_edges.jpg,-0.03174604,0.190476,edges,thko3,2022-05-29_09h19.27.031,ratings,2022.1.1,MacIntel,30.01560812
-1.467170858,3.8521,-0.250732193,1.8888,0,152,152,127,1,349_18d92ef5c21ca70a3dd237aad251594e1688bbe01d8cff37b89c46b8_bw.jpg,-2.74874,-1.258228,blackwhite,thko3,2022-05-29_09h19.27.031,ratings,2022.1.1,MacIntel,30.01560812
-0.443498133,3.0839,-0.458431172,3.7753,0,153,153,462,1,736_bb85db1bcda8eb34299aa5791ac65a0a7c343266eb2d6e6e328ec0e1_orig.jpg,3.650792,-0.03174604,original,thko3,2022-05-29_09h19.27.031,ratings,2022.1.1,MacIntel,30.01560812
-0.397079411,1.9724,-0.417686205,2.6252,0,154,154,367,1,616_05a637f5281666f53d4e2ef69351485fc21d629b37ee2006b2076eb6_bw.jpg,-2.380952,-0.832364,blackwhite,thko3,2022-05-29_09h19.27.031,ratings,2022.1.1,MacIntel,30.01560812
-1.366069665,4.5942,-1.165658329,5.2055,0,155,155,347,1,494_5c6c3b85a2734a43c24bfe337d42ffcc82b7347227804d01c784cef4_circblurext.jpg,0.03871468,0.0,circularblurringext,thko3,2022-05-29_09h19.27.031,ratings,2022.1.1,MacIntel,30.01560812
-0.684040655,1.1074,-0.305788419,1.7415,0,156,156,249,1,414_0187bdf7007109b487865b6a9d388997a6817acf052a6a7cdd5b39d9_blur.jpg,-2.786708,-1.133056,blurring,thko3,2022-05-29_09h19.27.031,ratings,2022.1.1,MacIntel,30.01560812
-1.009352323,4.5984,-0.721056077,5.1568,0,157,157,375,1,620_9674719009d75dcfeaed7f15932c43e1fd1af5e25d47b8aadd61efe2_blur.jpg,-0.561364,1.142084,blurring,thko3,2022-05-29_09h19.27.031,ratings,2022.1.1,MacIntel,30.01560812
-1.986575466,2.0475,-1.502894712,5.3902,0,158,158,492,1,824_b1d91cc824ce0d3d383d3147da88d3d6dbaf6be918bab79e3ec8f501_orig.jpg,-3.645176,-1.432784,original,thko3,2022-05-29_09h19.27.031,ratings,2022.1.1,MacIntel,30.01560812
-2.027921641,2.16,-1.562678305,2.7135,0,159,159,346,1,494_5c6c3b85a2734a43c24bfe337d42ffcc82b7347227804d01c784cef4_circblurint.jpg,0.03871468,0.0,circularblurringint,thko3,2022-05-29_09h19.27.031,ratings,2022.1.1,MacIntel,30.01560812
-1.938052517,1.4612,-1.401216314,2.1186,0,160,160,209,1,381_5935a9f9796adce2f1539af6c75bcdc0c80d847a2ce9b77cf59b7672_circblurext.jpg,-1.327432,-0.442476,circularblurringext,thko3,2022-05-29_09h19.27.031,ratings,2022.1.1,MacIntel,30.01560812
2.225424091,1.5267,2.486421392,2.1133,0,161,161,461,1,720_483c541c48959a597fcf44320941afaf8b7695105f90d65b5f6b30f2_circblurext.jpg,2.158732,-0.2539684,circularblurringext,thko3,2022-05-29_09h19.27.031,ratings,2022.1.1,MacIntel,30.01560812
1.995829036,1.4313,1.957610055,2.0135,0,162,162,397,1,683_a004ad18331da968da5debdd15e1447dd7748750af0bc6c57b844200_bw.jpg,-2.91956,2.466524,blackwhite,thko3,2022-05-29_09h19.27.031,ratings,2022.1.1,MacIntel,30.01560812
2.003397852,1.1706,2.162897346,1.7397,0,163,163,589,1,1228_557412d34d6a70b7c5d222e030aa485b351a4574e8ba1a3112d1d13d_bw.jpg,2.137444,0.703464,blackwhite,thko3,2022-05-29_09h19.27.031,ratings,2022.1.1,MacIntel,30.01560812
-1.252125944,5.0672,-1.105012929,5.6713,0,164,164,247,1,414_0187bdf7007109b487865b6a9d388997a6817acf052a6a7cdd5b39d9_bw.jpg,-2.786708,-1.133056,blackwhite,thko3,2022-05-29_09h19.27.031,ratings,2022.1.1,MacIntel,30.01560812
-0.81503193,1.5804,-0.328667459,2.161,0,165,165,525,1,877_cab3efed0c9ff4552037df6c1ea4ea9713f915c94592a14dbf2799da_blur.jpg,3.174604,0.3174604,blurring,thko3,2022-05-29_09h19.27.031,ratings,2022.1.1,MacIntel,30.01560812
-0.51488412,4.628,0.873813129,3.8771,0,166,166,486,1,818_877aae033c31e3bbca4486321a5307f87cf53c576c546462d3daf194_orig.jpg,-1.277584,0.619436,original,thko3,2022-05-29_09h19.27.031,ratings,2022.1.1,MacIntel,30.01560812
-0.387693255,1.3709,-0.400623793,1.9361,0,167,167,305,1,453_54f106fd1d4b65fa4aa347407127fc30d49f791e81aee3a0bbe44489_circblurext.jpg,2.222224,0.0,circularblurringext,thko3,2022-05-29_09h19.27.031,ratings,2022.1.1,MacIntel,30.01560812
1.608989587,1.2405,1.601328189,1.8405,0,168,168,593,1,1228_557412d34d6a70b7c5d222e030aa485b351a4574e8ba1a3112d1d13d_circblurext.jpg,2.137444,0.703464,circularblurringext,thko3,2022-05-29_09h19.27.031,ratings,2022.1.1,MacIntel,30.01560812
2.094209935,1.2745,2.497554022,2.2397,0,169,169,66,1,172_c641c6c56ca6b594b773084e1363c852abdb65f988d7ff802ee503f2_orig.jpg,0.379572,0.01725328,original,thko3,2022-05-29_09h19.27.031,ratings,2022.1.1,MacIntel,30.01560812
-0.453917543,1.4392,-0.436469946,2.039,0,170,170,176,1,368_6507b94d7d0199f14efd3706db30c9c44b96085f84e9cc7792e3e0ae_edges.jpg,1.959544,0.400336,edges,thko3,2022-05-29_09h19.27.031,ratings,2022.1.1,MacIntel,30.01560812
-1.550891891,3.0751,-0.384682645,2.3611,0,171,171,333,1,482_a1cd28915c5044c018195ab0fff10dcc95e385246b045a7cd4463ff7_blur.jpg,-3.361852,-1.555612,blurring,thko3,2022-05-29_09h19.27.031,ratings,2022.1.1,MacIntel,30.01560812
-1.239175975,1.2068,-1.389375037,1.7855,0,172,172,537,1,986_a77edb21e78bc3a6aa7406517824596b3496ad6c657b6befb84cf370_blur.jpg,-3.906316,-0.60496,blurring,thko3,2022-05-29_09h19.27.031,ratings,2022.1.1,MacIntel,30.01560812
-0.38697432,5.1145,-1.138331953,6.1389,0,173,173,455,1,716_2ab64478147184c4df720a52cf621875addc9007cb2967e4a9a88909_circblurext.jpg,2.428484,0.0,circularblurringext,thko3,2022-05-29_09h19.27.031,ratings,2022.1.1,MacIntel,30.01560812
-0.435595566,1.9723,-0.397013118,1.3531,0,174,174,261,1,416_8a1f874e0057d67a4e6955865ba88b2d8ce2c8b4469589307687a723_blur.jpg,-1.753336,3.088264,blurring,thko3,2022-05-29_09h19.27.031,ratings,2022.1.1,MacIntel,30.01560812
-1.501894604,3.8331,-1.534683285,4.3858,0,175,175,535,1,986_a77edb21e78bc3a6aa7406517824596b3496ad6c657b6befb84cf370_bw.jpg,-3.906316,-0.60496,blackwhite,thko3,2022-05-29_09h19.27.031,ratings,2022.1.1,MacIntel,30.01560812
-1.187590981,2.1824,-0.608862259,2.9303,0,176,176,207,1,381_5935a9f9796adce2f1539af6c75bcdc0c80d847a2ce9b77cf59b7672_blur.jpg,-1.327432,-0.442476,blurring,thko3,2022-05-29_09h19.27.031,ratings,2022.1.1,MacIntel,30.01560812
-0.446688191,1.4573,-0.409278441,2.0705,0,177,177,89,1,243_beddb302dcb21071d88c8d2cab07002050d36b3001ef28f89389fa56_circblurext.jpg,-0.3450656,-0.2070392,circularblurringext,thko3,2022-05-29_09h19.27.031,ratings,2022.1.1,MacIntel,30.01560812
-0.579128765,1.3128,-0.355245183,1.8587,0,178,178,509,1,855_66d893451dfd1e7615132071c6c8a82b02dc2b37781cd89400883b26_circblurext.jpg,2.69484,0.2143624,circularblurringext,thko3,2022-05-29_09h19.27.031,ratings,2022.1.1,MacIntel,30.01560812
-0.206650866,1.3179,-0.417229013,1.9476,0,179,179,542,1,1005_b980c0747d20935bc63cc27a9e05ce2ff5bae98f859872ec48edd7f5_edges.jpg,3.428572,-0.476192,edges,thko3,2022-05-29_09h19.27.031,ratings,2022.1.1,MacIntel,30.01560812
-0.440895566,1.5384,-0.450295438,2.1367,0,180,180,257,1,416_5eb54976bb41ce2a6d129ef985f792e716f010fb9b69b15f50f5d2db_circblurext.jpg,-2.58766,2.602972,circularblurringext,thko3,2022-05-29_09h19.27.031,ratings,2022.1.1,MacIntel,30.01560812
1.545306145,1.475,1.693094661,2.0594,0,181,181,139,1,353_44e285740cb41818482ac93fc5fbd72c18029444a1d7506c9fc053e7_bw.jpg,-3.232676,-0.87108,blackwhite,thko3,2022-05-29_09h19.27.031,ratings,2022.1.1,MacIntel,30.01560812
2.415043406,1.1958,2.634063606,1.7227,0,182,182,599,1,1239_cee00457f4cfb76a407b12fd5ad714d440a4614c1e5467ee16caf618_circblurext.jpg,-0.03174604,0.190476,circularblurringext,thko3,2022-05-29_09h19.27.031,ratings,2022.1.1,MacIntel,30.01560812
-0.304925469,1.2896,-0.498733806,1.8753,0,183,183,201,1,380_34772591c787182a37724027eac6948ebc9d4064f6a601d23b923b8e_blur.jpg,2.222224,-0.063492,blurring,thko3,2022-05-29_09h19.27.031,ratings,2022.1.1,MacIntel,30.01560812
-1.283012704,2.3439,-1.300677467,2.9742,0,184,184,205,1,381_5935a9f9796adce2f1539af6c75bcdc0c80d847a2ce9b77cf59b7672_bw.jpg,-1.327432,-0.442476,blackwhite,thko3,2022-05-29_09h19.27.031,ratings,2022.1.1,MacIntel,30.01560812
-1.716161149,1.3223,-1.642545207,1.8964,0,185,185,342,1,494_5c6c3b85a2734a43c24bfe337d42ffcc82b7347227804d01c784cef4_orig.jpg,0.03871468,0.0,original,thko3,2022-05-29_09h19.27.031,ratings,2022.1.1,MacIntel,30.01560812
2.142416279,1.2749,2.454503663,1.8145,0,186,186,18,1,48_2cc936b2483ab2944c9158e163342b874ef6c1492fd8fca08c0e096e_orig.jpg,-1.264224,-0.779604,original,thko3,2022-05-29_09h19.27.031,ratings,2022.1.1,MacIntel,30.01560812
-2.025229922,1.3617,1.102739541,2.6984,0,187,187,583,1,1225_59c67a821456f2cce3e5acf66d7f00076bd02caffc984c1eb0df794e_bw.jpg,-0.444444,3.809524,blackwhite,thko3,2022-05-29_09h19.27.031,ratings,2022.1.1,MacIntel,30.01560812
0.466985238,1.4439,0.589038406,3.8116,0,188,188,547,1,1010_06d15f44b979c086561137000ec070ba4cd479856f92840a7850b2bf_bw.jpg,0.189786,-0.189786,blackwhite,thko3,2022-05-29_09h19.27.031,ratings,2022.1.1,MacIntel,30.01560812
3.124391934,1.8222,3.189758987,2.5092,0,189,189,144,1,354_e46c3ec6fb00773f64f2bcd212385f253c389808fe724b7cf8611051_orig.jpg,2.018292,0.0,original,thko3,2022-05-29_09h19.27.031,ratings,2022.1.1,MacIntel,30.01560812
-1.298658964,1.3551,-1.283948805,1.912,0,190,190,251,1,414_0187bdf7007109b487865b6a9d388997a6817acf052a6a7cdd5b39d9_circblurext.jpg,-2.786708,-1.133056,circularblurringext,thko3,2022-05-29_09h19.27.031,ratings,2022.1.1,MacIntel,30.01560812
-0.35338784,1.9639,0.946457538,3.0883,0,191,191,432,1,694_f80f33613b268beffd6c044537cf3b44a84683d6e889bc37b8e9c34b_orig.jpg,-0.3785616,3.34728,original,thko3,2022-05-29_09h19.27.031,ratings,2022.1.1,MacIntel,30.01560812
-0.321015204,2.5146,0.536982504,3.1278,0,192,192,270,1,434_ba36d91204d7e578001f6a545d7501e65d209554def5a3c8b7583825_orig.jpg,-3.523808,1.428572,original,thko3,2022-05-29_09h19.27.031,ratings,2022.1.1,MacIntel,30.01560812
0.425643635,2.3811,0.732380728,2.9938,0,193,193,472,1,741_2b218fb015e3da83db73cacdb52e61e0c2534c1fe255bb1c5c74d47f_circblurint.jpg,3.140096,0.448584,circularblurringint,thko3,2022-05-29_09h19.27.031,ratings,2022.1.1,MacIntel,30.01560812
0.494927681,1.1623,0.597060986,1.7295,0,194,194,427,1,694_7a14b8ab7c564dcb0f628c4de7f6cb54e4c5f6601f774bf167641c37_bw.jpg,1.819588,0.116144,blackwhite,thko3,2022-05-29_09h19.27.031,ratings,2022.1.1,MacIntel,30.01560812
0.820402795,1.1202,1.257548243,1.9495,0,195,195,82,1,242_85283f6935a89812ab229dcad9ba184529c9242ac3106d768ecf3ab3_circblurint.jpg,2.14918,-0.2949852,circularblurringint,thko3,2022-05-29_09h19.27.031,ratings,2022.1.1,MacIntel,30.01560812
0.868729152,1.5757,0.81689156,2.8406,0,196,196,574,1,1039_d64da8480fc6e94dcdc513237d600570ae0b9fe48795ac6a8b2d29a7_circblurint.jpg,-2.507936,-1.142856,circularblurringint,thko3,2022-05-29_09h19.27.031,ratings,2022.1.1,MacIntel,30.01560812
-2.026476914,1.9602,1.132711918,2.8489,0,197,197,264,1,431_ab5a1dbbe9292ac7f74e276cdabcd372e2c1f852ff34bf7cc6646ef8_orig.jpg,3.102584,0.354334,original,thko3,2022-05-29_09h19.27.031,ratings,2022.1.1,MacIntel,30.01560812
-0.496107237,1.7406,-0.289887275,1.2415,0,198,198,80,1,242_85283f6935a89812ab229dcad9ba184529c9242ac3106d768ecf3ab3_edges.jpg,2.14918,-0.2949852,edges,thko3,2022-05-29_09h19.27.031,ratings,2022.1.1,MacIntel,30.01560812
-0.46452783,1.6748,-0.411775853,2.2147,0,199,199,369,1,616_05a637f5281666f53d4e2ef69351485fc21d629b37ee2006b2076eb6_blur.jpg,-2.380952,-0.832364,blurring,thko3,2022-05-29_09h19.27.031,ratings,2022.1.1,MacIntel,30.01560812
-0.384796943,2.3489,-0.405431169,3.0088,0,200,200,442,1,700_59cb565f134f1afd066d7b6d936c6511b7cb76de0e9cbb5ce15124ad_circblurint.jpg,0.0,0.0,circularblurringint,thko3,2022-05-29_09h19.27.031,ratings,2022.1.1,MacIntel,30.01560812
-0.425248164,6.2207,-0.256341941,6.7167,0,201,201,374,1,620_9674719009d75dcfeaed7f15932c43e1fd1af5e25d47b8aadd61efe2_edges.jpg,-0.561364,1.142084,edges,thko3,2022-05-29_09h19.27.031,ratings,2022.1.1,MacIntel,30.01560812
1.584230344,1.3212,1.613360344,1.9526,0,202,202,73,1,236_f645730e1eb06155418c9a571329cc7fa320654fcaaedf1048b5cc11_bw.jpg,2.253968,0.0,blackwhite,thko3,2022-05-29_09h19.27.031,ratings,2022.1.1,MacIntel,30.01560812
1.424523972,1.2042,1.517059669,1.7099,0,203,203,521,1,860_05c4e22518a30d3d2add458a8fc6488f87b9b02dd8e385ded939f025_circblurext.jpg,1.955092,0.3097172,circularblurringext,thko3,2022-05-29_09h19.27.031,ratings,2022.1.1,MacIntel,30.01560812
-0.509833289,1.2548,-0.434190843,1.7642,0,204,204,373,1,620_9674719009d75dcfeaed7f15932c43e1fd1af5e25d47b8aadd61efe2_bw.jpg,-0.561364,1.142084,blackwhite,thko3,2022-05-29_09h19.27.031,ratings,2022.1.1,MacIntel,30.01560812
-0.63946899,1.2105,-0.295828487,1.8104,0,205,205,392,1,663_aaf52107fe3a86392530d88b34e86f9d2b6820714cad98d1e3c2cb67_edges.jpg,2.58766,0.0918696,edges,thko3,2022-05-29_09h19.27.031,ratings,2022.1.1,MacIntel,30.01560812
0.817288174,1.6453,0.791792852,2.1836,0,206,206,121,1,347_27f0e47c2722605b950ccf9fa900f78271e4c3c874064ab5dacac160_bw.jpg,1.838948,0.3097172,blackwhite,thko3,2022-05-29_09h19.27.031,ratings,2022.1.1,MacIntel,30.01560812
-0.613029566,1.4738,-0.402190819,2.1758,0,207,207,104,1,284_cdcbd54fc995081ac95c8b2c37a19cebb341f61a8eb268cee1623492_edges.jpg,-1.015872,2.095236,edges,thko3,2022-05-29_09h19.27.031,ratings,2022.1.1,MacIntel,30.01560812
-0.548274008,1.2736,-0.434646892,2.2944,0,208,208,250,1,414_0187bdf7007109b487865b6a9d388997a6817acf052a6a7cdd5b39d9_circblurint.jpg,-2.786708,-1.133056,circularblurringint,thko3,2022-05-29_09h19.27.031,ratings,2022.1.1,MacIntel,30.01560812
1.449206634,1.3239,1.536731506,1.8709,0,209,209,592,1,1228_557412d34d6a70b7c5d222e030aa485b351a4574e8ba1a3112d1d13d_circblurint.jpg,2.137444,0.703464,circularblurringint,thko3,2022-05-29_09h19.27.031,ratings,2022.1.1,MacIntel,30.01560812
-1.644056227,3.339,-1.459768917,3.9079,0,210,210,494,1,824_b1d91cc824ce0d3d383d3147da88d3d6dbaf6be918bab79e3ec8f501_edges.jpg,-3.645176,-1.432784,edges,thko3,2022-05-29_09h19.27.031,ratings,2022.1.1,MacIntel,30.01560812
-2.227956936,2.8077,-1.979603285,2.1309,0,211,211,137,1,349_8809a67686d34844c915d7700e2ea72ad1c02ae232ae0d3cc0e458d4_circblurext.jpg,-3.619048,-0.2857144,circularblurringext,thko3,2022-05-29_09h19.27.031,ratings,2022.1.1,MacIntel,30.01560812
-0.527123155,1.4051,-0.26834095,1.9899,0,212,212,56,1,137_0e6a04243c0a42a5e2528a2d181255ca2a4b7bd6e7978c5c2059c69f_edges.jpg,-0.95238,2.095236,edges,thko3,2022-05-29_09h19.27.031,ratings,2022.1.1,MacIntel,30.01560812
-0.338137052,1.6111,-0.375489653,2.3175,0,213,213,199,1,380_34772591c787182a37724027eac6948ebc9d4064f6a601d23b923b8e_bw.jpg,2.222224,-0.063492,blackwhite,thko3,2022-05-29_09h19.27.031,ratings,2022.1.1,MacIntel,30.01560812
3.933753539,3.3851,3.826739708,2.3838,0,214,214,456,1,720_483c541c48959a597fcf44320941afaf8b7695105f90d65b5f6b30f2_orig.jpg,2.158732,-0.2539684,original,thko3,2022-05-29_09h19.27.031,ratings,2022.1.1,MacIntel,30.01560812
-0.481941137,1.5465,-0.404671087,2.1598,0,215,215,508,1,855_66d893451dfd1e7615132071c6c8a82b02dc2b37781cd89400883b26_circblurint.jpg,2.69484,0.2143624,circularblurringint,thko3,2022-05-29_09h19.27.031,ratings,2022.1.1,MacIntel,30.01560812
0.476977173,1.1909,0.589238428,1.8522,0,216,216,341,1,492_a1a4d288d3bc486c83c3b6a835c42891989f5ba781633932298a7676_circblurext.jpg,3.406892,-0.44522,circularblurringext,thko3,2022-05-29_09h19.27.031,ratings,2022.1.1,MacIntel,30.01560812
1.197464046,1.3524,1.403865743,1.9531,0,217,217,465,1,736_bb85db1bcda8eb34299aa5791ac65a0a7c343266eb2d6e6e328ec0e1_blur.jpg,3.650792,-0.03174604,blurring,thko3,2022-05-29_09h19.27.031,ratings,2022.1.1,MacIntel,30.01560812
-0.65938771,1.7796,-0.238898917,2.5752,0,218,218,540,1,1005_b980c0747d20935bc63cc27a9e05ce2ff5bae98f859872ec48edd7f5_orig.jpg,3.428572,-0.476192,original,thko3,2022-05-29_09h19.27.031,ratings,2022.1.1,MacIntel,30.01560812
0.474912951,2.9543,0.627353397,3.5263,0,219,219,1,1,13_771f4fcf0a212d25d6a78565e7f34cc5ddd823e7afbdc77ef063326e_bw.jpg,2.190476,0.0,blackwhite,thko3,2022-05-29_09h19.27.031,ratings,2022.1.1,MacIntel,30.01560812
0.761926772,1.3036,0.62132989,1.784,0,220,220,519,1,860_05c4e22518a30d3d2add458a8fc6488f87b9b02dd8e385ded939f025_blur.jpg,1.955092,0.3097172,blurring,thko3,2022-05-29_09h19.27.031,ratings,2022.1.1,MacIntel,30.01560812
-0.367110463,1.1546,-0.491281574,1.756,0,221,221,446,1,709_69c01dcde028a2a1a913f1a2a5026ae1748484f75c89217a040c6791_edges.jpg,1.432444,-0.01935732,edges,thko3,2022-05-29_09h19.27.031,ratings,2022.1.1,MacIntel,30.01560812
-0.266644767,1.9267,-0.464487826,2.5414,0,222,222,353,1,498_305b74cdc4784d9d25e72724302e5402def70177ea31ae7e25fab66b_circblurext.jpg,3.04762,-0.444444,circularblurringext,thko3,2022-05-29_09h19.27.031,ratings,2022.1.1,MacIntel,30.01560812
-0.333670284,4.8786,-0.033732782,4.3211,0,223,223,391,1,663_aaf52107fe3a86392530d88b34e86f9d2b6820714cad98d1e3c2cb67_bw.jpg,2.58766,0.0918696,blackwhite,thko3,2022-05-29_09h19.27.031,ratings,2022.1.1,MacIntel,30.01560812
-0.569724322,1.5079,-0.399124203,2.1066,0,224,224,484,1,759_95e1c46ed9a337414d5c8eada8fa8b9632e18751f5ce6ed587806e91_circblurint.jpg,2.126984,0.0,circularblurringint,thko3,2022-05-29_09h19.27.031,ratings,2022.1.1,MacIntel,30.01560812
-0.355620081,2.8608,-0.272021347,2.0944,0,225,225,413,1,687_e3b018945792a574962235c88c553b7c318c75eec2596478e8a7b877_circblurext.jpg,3.63918,-0.42586,circularblurringext,thko3,2022-05-29_09h19.27.031,ratings,2022.1.1,MacIntel,30.01560812
-0.283724324,1.9474,-0.549005516,2.6992,0,226,226,500,1,854_081a8409e4d6d10923b2dedcc16a3fca405fcd602e55a20d84cac69d_edges.jpg,3.088264,1.21538,edges,thko3,2022-05-29_09h19.27.031,ratings,2022.1.1,MacIntel,30.01560812
-1.409899537,2.799,-1.290368927,3.4137,0,227,227,361,1,508_a7a9519cdc7aad6844030f4e6cd96cffd1b9c49b71e20ea52789bda2_bw.jpg,-3.000388,-1.29694,blackwhite,thko3,2022-05-29_09h19.27.031,ratings,2022.1.1,MacIntel,30.01560812
-0.453572363,1.1643,-0.275828615,1.7938,0,228,228,440,1,700_59cb565f134f1afd066d7b6d936c6511b7cb76de0e9cbb5ce15124ad_edges.jpg,0.0,0.0,edges,thko3,2022-05-29_09h19.27.031,ratings,2022.1.1,MacIntel,30.01560812
0.155241891,1.3803,0.396878246,1.9799,0,229,229,562,1,1022_cf035e583d41a856836f8b0ae314ecbe79dffd9e40ef6a08cc26028f_circblurint.jpg,-0.2516452,3.05846,circularblurringint,thko3,2022-05-29_09h19.27.031,ratings,2022.1.1,MacIntel,30.01560812
1.047231838,1.3584,1.159977716,1.8753,0,230,230,187,1,369_c99797771115d7627d4abe3415f814497288f91a7be1a04c17c776b9_bw.jpg,3.619824,-0.174216,blackwhite,thko3,2022-05-29_09h19.27.031,ratings,2022.1.1,MacIntel,30.01560812
-0.337851306,1.3317,-0.341704294,1.8865,0,231,231,238,1,410_9633c4ff6e8888fcfca59a60ca86e9606d3e0736500a254101bdf295_circblurint.jpg,-0.3677892,2.981028,circularblurringint,thko3,2022-05-29_09h19.27.031,ratings,2022.1.1,MacIntel,30.01560812
3.125201165,1.5778,3.058023631,2.19,0,232,232,579,1,1061_665178b9cb0bc869cc2e2b68def4838db04e66f9531098fb75875a09_blur.jpg,0.3492064,-0.3174604,blurring,thko3,2022-05-29_09h19.27.031,ratings,2022.1.1,MacIntel,30.01560812
1.925886633,1.4769,2.128421626,2.0766,0,233,233,401,1,683_a004ad18331da968da5debdd15e1447dd7748750af0bc6c57b844200_circblurext.jpg,-2.91956,2.466524,circularblurringext,thko3,2022-05-29_09h19.27.031,ratings,2022.1.1,MacIntel,30.01560812
-0.4491536,1.2075,-0.29299161,1.7902,0,234,234,536,1,986_a77edb21e78bc3a6aa7406517824596b3496ad6c657b6befb84cf370_edges.jpg,-3.906316,-0.60496,edges,thko3,2022-05-29_09h19.27.031,ratings,2022.1.1,MacIntel,30.01560812
-0.487242281,1.1801,-0.353290686,1.7853,0,235,235,352,1,498_305b74cdc4784d9d25e72724302e5402def70177ea31ae7e25fab66b_circblurint.jpg,3.04762,-0.444444,circularblurringint,thko3,2022-05-29_09h19.27.031,ratings,2022.1.1,MacIntel,30.01560812
-1.513746169,1.3556,-1.320412168,1.9121,0,236,236,495,1,824_b1d91cc824ce0d3d383d3147da88d3d6dbaf6be918bab79e3ec8f501_blur.jpg,-3.645176,-1.432784,blurring,thko3,2022-05-29_09h19.27.031,ratings,2022.1.1,MacIntel,30.01560812
1.110810126,3.7619,1.368760241,4.3441,0,237,237,77,1,236_f645730e1eb06155418c9a571329cc7fa320654fcaaedf1048b5cc11_circblurext.jpg,2.253968,0.0,circularblurringext,thko3,2022-05-29_09h19.27.031,ratings,2022.1.1,MacIntel,30.01560812
-0.26557608,1.4275,-0.277893981,2.0838,0,238,238,202,1,380_34772591c787182a37724027eac6948ebc9d4064f6a601d23b923b8e_circblurint.jpg,2.222224,-0.063492,circularblurringint,thko3,2022-05-29_09h19.27.031,ratings,2022.1.1,MacIntel,30.01560812
1.702664836,1.2818,1.829694541,1.8894,0,239,239,148,1,354_e46c3ec6fb00773f64f2bcd212385f253c389808fe724b7cf8611051_circblurint.jpg,2.018292,0.0,circularblurringint,thko3,2022-05-29_09h19.27.031,ratings,2022.1.1,MacIntel,30.01560812
0.74349507,1.7727,0.615150937,2.4485,0,240,240,558,1,1022_cf035e583d41a856836f8b0ae314ecbe79dffd9e40ef6a08cc26028f_orig.jpg,-0.2516452,3.05846,original,thko3,2022-05-29_09h19.27.031,ratings,2022.1.1,MacIntel,30.01560812
-0.358986158,1.7083,-0.367339059,2.2879,0,241,241,92,1,258_d26019382777d2159a974a7654923e71598135ce2cd710cea1f92865_edges.jpg,3.497684,-0.61104,edges,thko3,2022-05-29_09h19.27.031,ratings,2022.1.1,MacIntel,30.01560812
2.190430602,1.1885,2.530196401,1.759,0,242,242,594,1,1239_cee00457f4cfb76a407b12fd5ad714d440a4614c1e5467ee16caf618_orig.jpg,-0.03174604,0.190476,original,thko3,2022-05-29_09h19.27.031,ratings,2022.1.1,MacIntel,30.01560812
0.499999086,2.2537,0.617305456,2.9074,0,243,243,340,1,492_a1a4d288d3bc486c83c3b6a835c42891989f5ba781633932298a7676_circblurint.jpg,3.406892,-0.44522,circularblurringint,thko3,2022-05-29_09h19.27.031,ratings,2022.1.1,MacIntel,30.01560812
-1.303772658,1.7745,-1.377496041,2.3739,0,244,244,343,1,494_5c6c3b85a2734a43c24bfe337d42ffcc82b7347227804d01c784cef4_bw.jpg,0.03871468,0.0,blackwhite,thko3,2022-05-29_09h19.27.031,ratings,2022.1.1,MacIntel,30.01560812
0.518357638,1.2245,0.608259908,1.8396,0,245,245,400,1,683_a004ad18331da968da5debdd15e1447dd7748750af0bc6c57b844200_circblurint.jpg,-2.91956,2.466524,circularblurringint,thko3,2022-05-29_09h19.27.031,ratings,2022.1.1,MacIntel,30.01560812
-3.029626282,2.8381,1.798200857,1.9092,0,246,246,329,1,468_8b69b13120daebadd8a4a3166e1419f2404395cba231307a4efa9fde_circblurext.jpg,2.031744,0.2539684,circularblurringext,thko3,2022-05-29_09h19.27.031,ratings,2022.1.1,MacIntel,30.01560812
-0.659849474,1.1834,-0.424568091,1.741,0,247,247,304,1,453_54f106fd1d4b65fa4aa347407127fc30d49f791e81aee3a0bbe44489_circblurint.jpg,2.222224,0.0,circularblurringint,thko3,2022-05-29_09h19.27.031,ratings,2022.1.1,MacIntel,30.01560812
-0.63494393,1.0954,-0.367409924,1.639,0,248,248,74,1,236_f645730e1eb06155418c9a571329cc7fa320654fcaaedf1048b5cc11_edges.jpg,2.253968,0.0,edges,thko3,2022-05-29_09h19.27.031,ratings,2022.1.1,MacIntel,30.01560812
0.493029191,1.2166,0.728322004,1.7729,0,249,249,123,1,347_27f0e47c2722605b950ccf9fa900f78271e4c3c874064ab5dacac160_blur.jpg,1.838948,0.3097172,blurring,thko3,2022-05-29_09h19.27.031,ratings,2022.1.1,MacIntel,30.01560812
-0.411205506,8.4869,-0.326195192,9.0686,0,250,250,254,1,416_5eb54976bb41ce2a6d129ef985f792e716f010fb9b69b15f50f5d2db_edges.jpg,-2.58766,2.602972,edges,thko3,2022-05-29_09h19.27.031,ratings,2022.1.1,MacIntel,30.01560812
-0.412993127,2.4057,-0.347092303,1.7868,0,251,251,105,1,284_cdcbd54fc995081ac95c8b2c37a19cebb341f61a8eb268cee1623492_blur.jpg,-1.015872,2.095236,blurring,thko3,2022-05-29_09h19.27.031,ratings,2022.1.1,MacIntel,30.01560812
-1.399844738,4.988,0.312217684,7.283,0,252,252,109,1,293_3dfdfafc0c6a54b2da7453750ac281f7718c0b3337b0a74c4563d6bd_bw.jpg,-2.574524,2.632596,blackwhite,thko3,2022-05-29_09h19.27.031,ratings,2022.1.1,MacIntel,30.01560812
-0.389890064,1.2118,-0.279371855,1.7078,0,253,253,548,1,1010_06d15f44b979c086561137000ec070ba4cd479856f92840a7850b2bf_edges.jpg,0.189786,-0.189786,edges,thko3,2022-05-29_09h19.27.031,ratings,2022.1.1,MacIntel,30.01560812
2.236901901,1.4164,2.133330727,2.1967,0,254,254,115,1,332_4d584229bdae2e1782f77f0e953e528f13c3dfa79b4b94736c0310fa_bw.jpg,3.157348,0.483092,blackwhite,thko3,2022-05-29_09h19.27.031,ratings,2022.1.1,MacIntel,30.01560812
0.129497399,1.4388,0.516111681,2.0534,0,255,255,184,1,369_98db62a1bdabfd1bc551180da6658005b461585cd21614633cf76470_circblurint.jpg,2.190476,-0.03174604,circularblurringint,thko3,2022-05-29_09h19.27.031,ratings,2022.1.1,MacIntel,30.01560812
-0.425629919,1.1385,-0.274942805,1.6935,0,256,256,38,1,82_43f4d5aec7c2e5bd495473f6708a0f2d47c9fe34e1fe9436646cb036_edges.jpg,2.022756,0.505688,edges,thko3,2022-05-29_09h19.27.031,ratings,2022.1.1,MacIntel,30.01560812
-0.329268666,1.2526,-0.137837728,1.9056,0,257,257,291,1,442_7449d79dae5d652af9b2429872cabdef938646ba024db2f431b3b28d_blur.jpg,1.619048,0.126984,blurring,thko3,2022-05-29_09h19.27.031,ratings,2022.1.1,MacIntel,30.01560812
-0.517070642,1.1733,-0.284947313,1.7081,0,258,258,159,1,358_157f8ac929713531a15b1ecf115e7b659cb90e83d675251e368d165f_blur.jpg,-3.777776,-0.571428,blurring,thko3,2022-05-29_09h19.27.031,ratings,2022.1.1,MacIntel,30.01560812
-1.465566114,2.224,-1.312971365,2.807,0,259,259,245,1,411_adfd0d5782129756321ff671d0cfb712528504c66c863df11aabd1e7_circblurext.jpg,-3.392332,-1.369576,circularblurringext,thko3,2022-05-29_09h19.27.031,ratings,2022.1.1,MacIntel,30.01560812
1.138782287,2.804,1.301756441,2.074,0,260,260,378,1,640_0ddb4981a5f5842ed5b4f7ef941be53779189df5e718b1fc5475ad80_orig.jpg,2.571428,-1.873016,original,thko3,2022-05-29_09h19.27.031,ratings,2022.1.1,MacIntel,30.01560812
1.390019678,1.1206,1.643448162,1.7708,0,261,261,31,1,60_ad52063167538de24f94d7dfd04808cb94cf8f426c40871d2f126505_bw.jpg,2.158732,0.0,blackwhite,thko3,2022-05-29_09h19.27.031,ratings,2022.1.1,MacIntel,30.01560812
0.41402181,1.5101,0.323031422,2.1535,0,262,262,279,1,440_9bf7e8609729bf888835168834da6c3ff30b75d0d4f36e2ee6918bcc_blur.jpg,-2.284164,2.710028,blurring,thko3,2022-05-29_09h19.27.031,ratings,2022.1.1,MacIntel,30.01560812
-1.767064927,2.1483,0.700041239,3.5298,0,263,263,112,1,293_3dfdfafc0c6a54b2da7453750ac281f7718c0b3337b0a74c4563d6bd_circblurint.jpg,-2.574524,2.632596,circularblurringint,thko3,2022-05-29_09h19.27.031,ratings,2022.1.1,MacIntel,30.01560812
0.789015409,1.6606,1.315295044,2.2313,0,264,264,117,1,332_4d584229bdae2e1782f77f0e953e528f13c3dfa79b4b94736c0310fa_blur.jpg,3.157348,0.483092,blurring,thko3,2022-05-29_09h19.27.031,ratings,2022.1.1,MacIntel,30.01560812
-0.630241708,1.1406,-0.094404471,1.7067,0,265,265,98,1,267_792043debad81ce271cec5b3c3bd9d264efc13f362bec9c7a3f72fe7_edges.jpg,1.980616,0.2107036,edges,thko3,2022-05-29_09h19.27.031,ratings,2022.1.1,MacIntel,30.01560812
-1.283959092,4.39,0.810094255,5.2287,0,266,266,385,1,646_577760d718dab44c6f04d77408c5644a120065ce07a9503957d0850a_bw.jpg,-2.690668,2.61324,blackwhite,thko3,2022-05-29_09h19.27.031,ratings,2022.1.1,MacIntel,30.01560812
-0.440676114,1.255,-0.336037396,1.8408,0,267,267,555,1,1014_a5c212ca979d482cf94c2db7697aba75620391a64b030ab7ad2bbecf_blur.jpg,-3.174604,-1.374372,blurring,thko3,2022-05-29_09h19.27.031,ratings,2022.1.1,MacIntel,30.01560812
-0.536516168,1.0625,-0.27544686,1.6068,0,268,268,584,1,1225_59c67a821456f2cce3e5acf66d7f00076bd02caffc984c1eb0df794e_edges.jpg,-0.444444,3.809524,edges,thko3,2022-05-29_09h19.27.031,ratings,2022.1.1,MacIntel,30.01560812
-1.453242498,3.4505,-1.791914465,4.186,0,269,269,322,1,460_e06b3af7ff2f2bfb5f9b6e3d5dc25b9aaa40b84823fac8fd934621bd_circblurint.jpg,-3.430992,-1.607468,circularblurringint,thko3,2022-05-29_09h19.27.031,ratings,2022.1.1,MacIntel,30.01560812
1.571416391,2.4203,1.460875322,1.8937,0,270,270,78,1,242_85283f6935a89812ab229dcad9ba184529c9242ac3106d768ecf3ab3_orig.jpg,2.14918,-0.2949852,original,thko3,2022-05-29_09h19.27.031,ratings,2022.1.1,MacIntel,30.01560812
-0.340635607,1.3733,-0.261736809,2.0715,0,271,271,87,1,243_beddb302dcb21071d88c8d2cab07002050d36b3001ef28f89389fa56_blur.jpg,-0.3450656,-0.2070392,blurring,thko3,2022-05-29_09h19.27.031,ratings,2022.1.1,MacIntel,30.01560812
-0.478984247,1.0743,-0.324683029,1.7126,0,272,272,302,1,453_54f106fd1d4b65fa4aa347407127fc30d49f791e81aee3a0bbe44489_edges.jpg,2.222224,0.0,edges,thko3,2022-05-29_09h19.27.031,ratings,2022.1.1,MacIntel,30.01560812
-0.390078655,1.8073,-0.447153384,2.3628,0,273,273,485,1,759_95e1c46ed9a337414d5c8eada8fa8b9632e18751f5ce6ed587806e91_circblurext.jpg,2.126984,0.0,circularblurringext,thko3,2022-05-29_09h19.27.031,ratings,2022.1.1,MacIntel,30.01560812
-0.346568818,1.1069,-0.33100714,3.0284,0,274,274,350,1,498_305b74cdc4784d9d25e72724302e5402def70177ea31ae7e25fab66b_edges.jpg,3.04762,-0.444444,edges,thko3,2022-05-29_09h19.27.031,ratings,2022.1.1,MacIntel,30.01560812
-0.438370723,8.2807,-0.258746772,8.8379,0,275,275,266,1,431_ab5a1dbbe9292ac7f74e276cdabcd372e2c1f852ff34bf7cc6646ef8_edges.jpg,3.102584,0.354334,edges,thko3,2022-05-29_09h19.27.031,ratings,2022.1.1,MacIntel,30.01560812
-0.488186383,8.775,-0.275664026,9.3873,0,276,276,544,1,1005_b980c0747d20935bc63cc27a9e05ce2ff5bae98f859872ec48edd7f5_circblurint.jpg,3.428572,-0.476192,circularblurringint,thko3,2022-05-29_09h19.27.031,ratings,2022.1.1,MacIntel,30.01560812
-0.430951636,1.0096,-0.288903169,1.643,0,277,277,208,1,381_5935a9f9796adce2f1539af6c75bcdc0c80d847a2ce9b77cf59b7672_circblurint.jpg,-1.327432,-0.442476,circularblurringint,thko3,2022-05-29_09h19.27.031,ratings,2022.1.1,MacIntel,30.01560812
-0.365670308,2.4442,-0.359167892,1.7951,0,278,278,62,1,156_08e8cf8f04630e9213e610580de73f51572d1d589878648700bae4dc_edges.jpg,2.222224,0.0,edges,thko3,2022-05-29_09h19.27.031,ratings,2022.1.1,MacIntel,30.01560812
-0.283634029,1.4215,-0.410413421,2.0769,0,279,279,351,1,498_305b74cdc4784d9d25e72724302e5402def70177ea31ae7e25fab66b_blur.jpg,3.04762,-0.444444,blurring,thko3,2022-05-29_09h19.27.031,ratings,2022.1.1,MacIntel,30.01560812
1.061074475,1.1474,1.062660932,1.8515,0,280,280,75,1,236_f645730e1eb06155418c9a571329cc7fa320654fcaaedf1048b5cc11_blur.jpg,2.253968,0.0,blurring,thko3,2022-05-29_09h19.27.031,ratings,2022.1.1,MacIntel,30.01560812
0.705189223,1.3758,0.993614625,1.9929,0,281,281,191,1,369_c99797771115d7627d4abe3415f814497288f91a7be1a04c17c776b9_circblurext.jpg,3.619824,-0.174216,circularblurringext,thko3,2022-05-29_09h19.27.031,ratings,2022.1.1,MacIntel,30.01560812
-0.409430457,1.315,-0.386394829,1.9386,0,282,282,530,1,915_dc9fd40a3b5d64a180833a7bac86e7556c24f681f473fe255e41f936_edges.jpg,-3.09294,-0.918696,edges,thko3,2022-05-29_09h19.27.031,ratings,2022.1.1,MacIntel,30.01560812
-0.473207624,1.3486,-0.422998778,1.9482,0,283,283,243,1,411_adfd0d5782129756321ff671d0cfb712528504c66c863df11aabd1e7_blur.jpg,-3.392332,-1.369576,blurring,thko3,2022-05-29_09h19.27.031,ratings,2022.1.1,MacIntel,30.01560812
1.187597839,1.2831,1.586562025,1.9286,0,284,284,49,1,112_b6a4ce721c2e42943d7d8b168751d74cd2f372b1cd4fed5a4404faec_bw.jpg,2.107036,0.505688,blackwhite,thko3,2022-05-29_09h19.27.031,ratings,2022.1.1,MacIntel,30.01560812
-2.25285105,1.4944,1.582714752,2.5078,0,285,285,354,1,500_3b520c7f352afa1a9f8c07e56cc0588cdc04d25ff6e7b602b5e280cb_orig.jpg,-0.8328,3.11766,original,thko3,2022-05-29_09h19.27.031,ratings,2022.1.1,MacIntel,30.01560812
-1.883032867,1.9737,-2.016571845,2.5136,0,286,286,363,1,508_a7a9519cdc7aad6844030f4e6cd96cffd1b9c49b71e20ea52789bda2_blur.jpg,-3.000388,-1.29694,blurring,thko3,2022-05-29_09h19.27.031,ratings,2022.1.1,MacIntel,30.01560812
-1.939786418,1.4221,-1.929018399,1.9396,0,287,287,356,1,500_3b520c7f352afa1a9f8c07e56cc0588cdc04d25ff6e7b602b5e280cb_edges.jpg,-0.8328,3.11766,edges,thko3,2022-05-29_09h19.27.031,ratings,2022.1.1,MacIntel,30.01560812
1.945779065,1.3792,2.063280884,1.9502,0,288,288,20,1,48_2cc936b2483ab2944c9158e163342b874ef6c1492fd8fca08c0e096e_edges.jpg,-1.264224,-0.779604,edges,thko3,2022-05-29_09h19.27.031,ratings,2022.1.1,MacIntel,30.01560812
1.291710786,2.4553,1.63218066,2.9773,0,289,289,50,1,112_b6a4ce721c2e42943d7d8b168751d74cd2f372b1cd4fed5a4404faec_edges.jpg,2.107036,0.505688,edges,thko3,2022-05-29_09h19.27.031,ratings,2022.1.1,MacIntel,30.01560812
-0.43106022,1.3082,-0.309773992,1.8909,0,290,290,86,1,243_beddb302dcb21071d88c8d2cab07002050d36b3001ef28f89389fa56_edges.jpg,-0.3450656,-0.2070392,edges,thko3,2022-05-29_09h19.27.031,ratings,2022.1.1,MacIntel,30.01560812
-0.580803232,1.5388,-0.346283073,2.1087,0,291,291,216,1,396_208259ea431d47bb7f3946213eb099834eb119756ce304ad473d4d9f_orig.jpg,2.857144,-0.3809524,original,thko3,2022-05-29_09h19.27.031,ratings,2022.1.1,MacIntel,30.01560812
-1.776521947,1.9311,-1.958301558,2.4736,0,292,292,493,1,824_b1d91cc824ce0d3d383d3147da88d3d6dbaf6be918bab79e3ec8f501_bw.jpg,-3.645176,-1.432784,blackwhite,thko3,2022-05-29_09h19.27.031,ratings,2022.1.1,MacIntel,30.01560812
1.247715182,1.2069,1.402946786,1.7776,0,293,293,399,1,683_a004ad18331da968da5debdd15e1447dd7748750af0bc6c57b844200_blur.jpg,-2.91956,2.466524,blurring,thko3,2022-05-29_09h19.27.031,ratings,2022.1.1,MacIntel,30.01560812
-0.421765502,1.8949,-0.328673173,2.4641,0,294,294,26,1,59_8568373b727f29d67ba6ce4c360dd918c8b08b13495fca56bdda5e82_edges.jpg,2.064896,0.505688,edges,thko3,2022-05-29_09h19.27.031,ratings,2022.1.1,MacIntel,30.01560812
1.136286018,1.0919,1.506880285,1.6448,0,295,295,570,1,1039_d64da8480fc6e94dcdc513237d600570ae0b9fe48795ac6a8b2d29a7_orig.jpg,-2.507936,-1.142856,original,thko3,2022-05-29_09h19.27.031,ratings,2022.1.1,MacIntel,30.01560812
0.622748329,1.2246,0.47969861,1.8074,0,296,296,283,1,440_dc6413e2b65369ee2587f4d85621742fe4ca87392d0a8ad2ea7d94e3_bw.jpg,-3.016216,1.69404,blackwhite,thko3,2022-05-29_09h19.27.031,ratings,2022.1.1,MacIntel,30.01560812
-0.38210751,1.296,-0.299149988,1.9135,0,297,297,308,1,455_34a7d8167619d110206c369e3f7dce8a3f99db763a9d8e2b956501d3_edges.jpg,-2.526412,-0.3827896,edges,thko3,2022-05-29_09h19.27.031,ratings,2022.1.1,MacIntel,30.01560812
-0.320536296,1.1827,-0.268491824,1.9792,0,298,298,239,1,410_9633c4ff6e8888fcfca59a60ca86e9606d3e0736500a254101bdf295_circblurext.jpg,-0.3677892,2.981028,circularblurringext,thko3,2022-05-29_09h19.27.031,ratings,2022.1.1,MacIntel,30.01560812
1.150327532,1.3299,1.451151987,1.9596,0,299,299,598,1,1239_cee00457f4cfb76a407b12fd5ad714d440a4614c1e5467ee16caf618_circblurint.jpg,-0.03174604,0.190476,circularblurringint,thko3,2022-05-29_09h19.27.031,ratings,2022.1.1,MacIntel,30.01560812
1.32718547,1.0925,1.568861829,1.6901,0,300,300,186,1,369_c99797771115d7627d4abe3415f814497288f91a7be1a04c17c776b9_orig.jpg,3.619824,-0.174216,original,thko3,2022-05-29_09h19.27.031,ratings,2022.1.1,MacIntel,30.01560812
-0.50138895,1.2738,-0.185478296,1.7935,0,301,301,523,1,877_cab3efed0c9ff4552037df6c1ea4ea9713f915c94592a14dbf2799da_bw.jpg,3.174604,0.3174604,blackwhite,thko3,2022-05-29_09h19.27.031,ratings,2022.1.1,MacIntel,30.01560812
0.612613521,1.4314,0.553096243,2.0479,0,302,302,382,1,640_0ddb4981a5f5842ed5b4f7ef941be53779189df5e718b1fc5475ad80_circblurint.jpg,2.571428,-1.873016,circularblurringint,thko3,2022-05-29_09h19.27.031,ratings,2022.1.1,MacIntel,30.01560812
-1.971550988,1.5595,1.604253076,2.2945,0,303,303,12,1,39_2fafccaa4dc69045a05845f59c6b3cd2edcf7e0e0c108b24e553afe0_orig.jpg,2.022756,0.463548,original,thko3,2022-05-29_09h19.27.031,ratings,2022.1.1,MacIntel,30.01560812
0.557071529,2.8492,0.498053733,3.4206,0,304,304,337,1,492_a1a4d288d3bc486c83c3b6a835c42891989f5ba781633932298a7676_bw.jpg,3.406892,-0.44522,blackwhite,thko3,2022-05-29_09h19.27.031,ratings,2022.1.1,MacIntel,30.01560812
-0.317652556,1.0739,-0.341865454,1.5866,0,305,305,320,1,460_e06b3af7ff2f2bfb5f9b6e3d5dc25b9aaa40b84823fac8fd934621bd_edges.jpg,-3.430992,-1.607468,edges,thko3,2022-05-29_09h19.27.031,ratings,2022.1.1,MacIntel,30.01560812
-0.433266172,1.0634,-0.270152574,1.6063,0,306,306,527,1,877_cab3efed0c9ff4552037df6c1ea4ea9713f915c94592a14dbf2799da_circblurext.jpg,3.174604,0.3174604,circularblurringext,thko3,2022-05-29_09h19.27.031,ratings,2022.1.1,MacIntel,30.01560812
-1.990157567,3.8418,-1.951669986,4.4745,0,307,307,360,1,508_a7a9519cdc7aad6844030f4e6cd96cffd1b9c49b71e20ea52789bda2_orig.jpg,-3.000388,-1.29694,original,thko3,2022-05-29_09h19.27.031,ratings,2022.1.1,MacIntel,30.01560812
0.469432359,1.3128,0.618529588,1.8535,0,308,308,285,1,440_dc6413e2b65369ee2587f4d85621742fe4ca87392d0a8ad2ea7d94e3_blur.jpg,-3.016216,1.69404,blurring,thko3,2022-05-29_09h19.27.031,ratings,2022.1.1,MacIntel,30.01560812
-1.767763288,1.3061,-1.525233122,1.8561,0,309,309,132,1,349_8809a67686d34844c915d7700e2ea72ad1c02ae232ae0d3cc0e458d4_orig.jpg,-3.619048,-0.2857144,original,thko3,2022-05-29_09h19.27.031,ratings,2022.1.1,MacIntel,30.01560812
0.482858951,1.5064,0.604204614,2.0115,0,310,310,393,1,663_aaf52107fe3a86392530d88b34e86f9d2b6820714cad98d1e3c2cb67_blur.jpg,2.58766,0.0918696,blurring,thko3,2022-05-29_09h19.27.031,ratings,2022.1.1,MacIntel,30.01560812
-1.966285277,1.8054,-1.120635186,3.6512,0,311,311,166,1,361_b5541309527dc3c2422f45a95ebb0ed32005e6fe10d0489a1ff1fbdc_circblurint.jpg,-3.987612,-0.2516452,circularblurringint,thko3,2022-05-29_09h19.27.031,ratings,2022.1.1,MacIntel,30.01560812
-0.406613011,1.4223,-0.3637421,1.9153,0,312,312,252,1,416_5eb54976bb41ce2a6d129ef985f792e716f010fb9b69b15f50f5d2db_orig.jpg,-2.58766,2.602972,original,thko3,2022-05-29_09h19.27.031,ratings,2022.1.1,MacIntel,30.01560812
-0.443215817,3.9897,-0.177776894,4.6384,0,313,313,488,1,818_877aae033c31e3bbca4486321a5307f87cf53c576c546462d3daf194_edges.jpg,-1.277584,0.619436,edges,thko3,2022-05-29_09h19.27.031,ratings,2022.1.1,MacIntel,30.01560812
-0.621526482,1.0834,-0.422935914,1.6072,0,314,314,414,1,692_7d7eaf20e6de8956f0fca7500ace97a8599aa8b605a7d690cdb28724_orig.jpg,-2.063492,-1.26984,original,thko3,2022-05-29_09h19.27.031,ratings,2022.1.1,MacIntel,30.01560812
0.537149379,1.2411,0.694329765,1.8202,0,315,315,30,1,60_ad52063167538de24f94d7dfd04808cb94cf8f426c40871d2f126505_orig.jpg,2.158732,0.0,original,thko3,2022-05-29_09h19.27.031,ratings,2022.1.1,MacIntel,30.01560812
-0.513996024,1.0318,-0.50689583,1.5423,0,316,316,410,1,687_e3b018945792a574962235c88c553b7c318c75eec2596478e8a7b877_edges.jpg,3.63918,-0.42586,edges,thko3,2022-05-29_09h19.27.031,ratings,2022.1.1,MacIntel,30.01560812
-0.288611709,2.3285,-0.262174571,2.9118,0,317,317,452,1,716_2ab64478147184c4df720a52cf621875addc9007cb2967e4a9a88909_edges.jpg,2.428484,0.0,edges,thko3,2022-05-29_09h19.27.031,ratings,2022.1.1,MacIntel,30.01560812
3.016612307,1.3737,3.195295584,2.0164,0,318,318,457,1,720_483c541c48959a597fcf44320941afaf8b7695105f90d65b5f6b30f2_bw.jpg,2.158732,-0.2539684,blackwhite,thko3,2022-05-29_09h19.27.031,ratings,2022.1.1,MacIntel,30.01560812
2.169816949,1.3285,2.440745607,1.8824,0,319,319,69,1,172_c641c6c56ca6b594b773084e1363c852abdb65f988d7ff802ee503f2_blur.jpg,0.379572,0.01725328,blurring,thko3,2022-05-29_09h19.27.031,ratings,2022.1.1,MacIntel,30.01560812
-0.366545831,6.5519,-0.247183239,7.1721,0,320,320,482,1,759_95e1c46ed9a337414d5c8eada8fa8b9632e18751f5ce6ed587806e91_edges.jpg,2.126984,0.0,edges,thko3,2022-05-29_09h19.27.031,ratings,2022.1.1,MacIntel,30.01560812
-1.854492645,2.6544,1.49619799,3.3121,0,321,321,402,1,686_6745b57686ad5d1bd6cf3e7ed5bc0243a154f8939e88e30321dfcfdb_orig.jpg,-1.523808,3.650792,original,thko3,2022-05-29_09h19.27.031,ratings,2022.1.1,MacIntel,30.01560812
0.720515448,1.1737,0.758966453,1.7132,0,322,322,425,1,692_e3e3bf88684fbbcdb9849a4147f9e2fcd39b0f083554a829aca4e9fa_circblurext.jpg,-0.44522,3.135888,circularblurringext,thko3,2022-05-29_09h19.27.031,ratings,2022.1.1,MacIntel,30.01560812
-1.94543617,1.2459,1.373937943,1.8191,0,323,323,407,1,686_6745b57686ad5d1bd6cf3e7ed5bc0243a154f8939e88e30321dfcfdb_circblurext.jpg,-1.523808,3.650792,circularblurringext,thko3,2022-05-29_09h19.27.031,ratings,2022.1.1,MacIntel,30.01560812
-0.544730769,1.4906,0.719353036,3.0758,0,324,324,439,1,700_59cb565f134f1afd066d7b6d936c6511b7cb76de0e9cbb5ce15124ad_bw.jpg,0.0,0.0,blackwhite,thko3,2022-05-29_09h19.27.031,ratings,2022.1.1,MacIntel,30.01560812
-0.376375463,1.1462,-0.355264614,1.7443,0,325,325,107,1,284_cdcbd54fc995081ac95c8b2c37a19cebb341f61a8eb268cee1623492_circblurext.jpg,-1.015872,2.095236,circularblurringext,thko3,2022-05-29_09h19.27.031,ratings,2022.1.1,MacIntel,30.01560812
-0.656769142,1.513,-0.390975895,1.98,0,326,326,173,1,365_45a719cabbc9aa308c4fcb30d529489c6966ac4073874af84f665c61_circblurext.jpg,2.507936,-1.968252,circularblurringext,thko3,2022-05-29_09h19.27.031,ratings,2022.1.1,MacIntel,30.01560812
-0.380357607,1.0991,-0.382876736,1.6534,0,327,327,419,1,692_7d7eaf20e6de8956f0fca7500ace97a8599aa8b605a7d690cdb28724_circblurext.jpg,-2.063492,-1.26984,circularblurringext,thko3,2022-05-29_09h19.27.031,ratings,2022.1.1,MacIntel,30.01560812
-0.389166557,1.4176,-0.487883493,1.9585,0,328,328,101,1,267_792043debad81ce271cec5b3c3bd9d264efc13f362bec9c7a3f72fe7_circblurext.jpg,1.980616,0.2107036,circularblurringext,thko3,2022-05-29_09h19.27.031,ratings,2022.1.1,MacIntel,30.01560812
-0.553698593,2.1273,-0.348762198,2.7575,0,329,329,502,1,854_081a8409e4d6d10923b2dedcc16a3fca405fcd602e55a20d84cac69d_circblurint.jpg,3.088264,1.21538,circularblurringint,thko3,2022-05-29_09h19.27.031,ratings,2022.1.1,MacIntel,30.01560812
-0.321468968,4.6938,-0.167038593,5.2182,0,330,330,219,1,396_208259ea431d47bb7f3946213eb099834eb119756ce304ad473d4d9f_blur.jpg,2.857144,-0.3809524,blurring,thko3,2022-05-29_09h19.27.031,ratings,2022.1.1,MacIntel,30.01560812
-1.320545897,1.442,0.681438089,2.0154,0,331,331,15,1,39_2fafccaa4dc69045a05845f59c6b3cd2edcf7e0e0c108b24e553afe0_blur.jpg,2.022756,0.463548,blurring,thko3,2022-05-29_09h19.27.031,ratings,2022.1.1,MacIntel,30.01560812
0.357894612,2.3247,0.508117676,2.8951,0,332,332,180,1,369_98db62a1bdabfd1bc551180da6658005b461585cd21614633cf76470_orig.jpg,2.190476,-0.03174604,original,thko3,2022-05-29_09h19.27.031,ratings,2022.1.1,MacIntel,30.01560812
-1.284123681,1.3605,-1.229082315,1.9124,0,333,333,310,1,455_34a7d8167619d110206c369e3f7dce8a3f99db763a9d8e2b956501d3_circblurint.jpg,-2.526412,-0.3827896,circularblurringint,thko3,2022-05-29_09h19.27.031,ratings,2022.1.1,MacIntel,30.01560812
-0.354773132,1.1277,-0.416873546,1.5921,0,334,334,317,1,459_46e25de472bb056cb470716d30937415f7344bfc4354d6eb710d8c9f_circblurext.jpg,0.03174604,0.0,circularblurringext,thko3,2022-05-29_09h19.27.031,ratings,2022.1.1,MacIntel,30.01560812
-1.103116725,3.4786,-1.153136978,4.0796,0,335,335,294,1,449_9c1e990a3480e5b51430fe76b0188e69ba2468fd6a866b88b2d0dd75_orig.jpg,0.095238,0.03174604,original,thko3,2022-05-29_09h19.27.031,ratings,2022.1.1,MacIntel,30.01560812
-0.407744561,2.1842,-0.387730973,1.5539,0,336,336,416,1,692_7d7eaf20e6de8956f0fca7500ace97a8599aa8b605a7d690cdb28724_edges.jpg,-2.063492,-1.26984,edges,thko3,2022-05-29_09h19.27.031,ratings,2022.1.1,MacIntel,30.01560812
0.942751995,1.6783,1.147360355,2.2494,0,337,337,48,1,112_b6a4ce721c2e42943d7d8b168751d74cd2f372b1cd4fed5a4404faec_orig.jpg,2.107036,0.505688,original,thko3,2022-05-29_09h19.27.031,ratings,2022.1.1,MacIntel,30.01560812
0.23813312,1.2059,0.461198328,1.8061,0,338,338,430,1,694_7a14b8ab7c564dcb0f628c4de7f6cb54e4c5f6601f774bf167641c37_circblurint.jpg,1.819588,0.116144,circularblurringint,thko3,2022-05-29_09h19.27.031,ratings,2022.1.1,MacIntel,30.01560812
0.365040526,1.1219,0.524562879,1.8743,0,339,339,550,1,1010_06d15f44b979c086561137000ec070ba4cd479856f92840a7850b2bf_circblurint.jpg,0.189786,-0.189786,circularblurringint,thko3,2022-05-29_09h19.27.031,ratings,2022.1.1,MacIntel,30.01560812
-1.178447138,6.1672,-1.209704224,6.8346,0,340,340,514,1,858_2f6539ee36aba48c38dc716d4f7c3ae93367d6ddf23ab41745d4172c_circblurint.jpg,0.0623832,0.176752,circularblurringint,thko3,2022-05-29_09h19.27.031,ratings,2022.1.1,MacIntel,30.01560812
-2.280099704,2.5856,2.059063286,3.2892,0,341,341,328,1,468_8b69b13120daebadd8a4a3166e1419f2404395cba231307a4efa9fde_circblurint.jpg,2.031744,0.2539684,circularblurringint,thko3,2022-05-29_09h19.27.031,ratings,2022.1.1,MacIntel,30.01560812
0.338870845,1.2713,0.459970767,1.8497,0,342,342,225,1,403_57ac47f43882fc031a6067b1a388c0b2cbe8708dcbd2ff1019932eff_blur.jpg,-3.333332,-1.396824,blurring,thko3,2022-05-29_09h19.27.031,ratings,2022.1.1,MacIntel,30.01560812
-0.556583476,1.0261,-0.151880386,2.7196,0,343,343,512,1,858_2f6539ee36aba48c38dc716d4f7c3ae93367d6ddf23ab41745d4172c_edges.jpg,0.0623832,0.176752,edges,thko3,2022-05-29_09h19.27.031,ratings,2022.1.1,MacIntel,30.01560812
-2.179073948,1.2929,1.479951666,2.0724,0,344,344,358,1,500_3b520c7f352afa1a9f8c07e56cc0588cdc04d25ff6e7b602b5e280cb_circblurint.jpg,-0.8328,3.11766,circularblurringint,thko3,2022-05-29_09h19.27.031,ratings,2022.1.1,MacIntel,30.01560812
-0.408594939,2.4813,-0.244110908,1.8956,0,345,345,386,1,646_577760d718dab44c6f04d77408c5644a120065ce07a9503957d0850a_edges.jpg,-2.690668,2.61324,edges,thko3,2022-05-29_09h19.27.031,ratings,2022.1.1,MacIntel,30.01560812
0.436369364,1.8143,0.524504587,2.3736,0,346,346,339,1,492_a1a4d288d3bc486c83c3b6a835c42891989f5ba781633932298a7676_blur.jpg,3.406892,-0.44522,blurring,thko3,2022-05-29_09h19.27.031,ratings,2022.1.1,MacIntel,30.01560812
-0.330837978,1.5722,-0.311454173,3.2822,0,347,347,395,1,663_aaf52107fe3a86392530d88b34e86f9d2b6820714cad98d1e3c2cb67_circblurext.jpg,2.58766,0.0918696,circularblurringext,thko3,2022-05-29_09h19.27.031,ratings,2022.1.1,MacIntel,30.01560812
-0.468098501,1.2084,-0.254593181,1.7066,0,348,348,212,1,394_8e3a0cb945144d53bd1ace04b6256237ed9dcbbd9cb83f8a4886b0e6_edges.jpg,-2.593884,2.651956,edges,thko3,2022-05-29_09h19.27.031,ratings,2022.1.1,MacIntel,30.01560812
1.301667288,1.2305,1.543209919,1.7724,0,349,349,119,1,332_4d584229bdae2e1782f77f0e953e528f13c3dfa79b4b94736c0310fa_circblurext.jpg,3.157348,0.483092,circularblurringext,thko3,2022-05-29_09h19.27.031,ratings,2022.1.1,MacIntel,30.01560812
-0.408506929,3.6664,-0.344324005,4.2181,0,350,350,213,1,394_8e3a0cb945144d53bd1ace04b6256237ed9dcbbd9cb83f8a4886b0e6_blur.jpg,-2.593884,2.651956,blurring,thko3,2022-05-29_09h19.27.031,ratings,2022.1.1,MacIntel,30.01560812
-0.46342714,1.0533,-0.343630216,1.5509,0,351,351,7,1,28_6318543b74eeb646a1735477ebc023fdc9ac3849bc0db1957c272a26_bw.jpg,2.811244,-0.74584,blackwhite,thko3,2022-05-29_09h19.27.031,ratings,2022.1.1,MacIntel,30.01560812
0.776804949,1.0544,0.794212541,1.5392,0,352,352,232,1,407_578d31d32e806706dde2563213f130b90e621abfed0e47ecabd85d27_circblurint.jpg,3.5873,-0.444444,circularblurringint,thko3,2022-05-29_09h19.27.031,ratings,2022.1.1,MacIntel,30.01560812
3.633166824,1.9948,3.668879248,2.744,0,353,353,174,1,368_6507b94d7d0199f14efd3706db30c9c44b96085f84e9cc7792e3e0ae_orig.jpg,1.959544,0.400336,original,thko3,2022-05-29_09h19.27.031,ratings,2022.1.1,MacIntel,30.01560812
-2.307796407,3.075,2.156420075,3.8905,0,354,354,61,1,156_08e8cf8f04630e9213e610580de73f51572d1d589878648700bae4dc_bw.jpg,2.222224,0.0,blackwhite,thko3,2022-05-29_09h19.27.031,ratings,2022.1.1,MacIntel,30.01560812
-1.852675306,1.9616,1.881374402,2.8472,0,355,355,24,1,59_8568373b727f29d67ba6ce4c360dd918c8b08b13495fca56bdda5e82_orig.jpg,2.064896,0.505688,original,thko3,2022-05-29_09h19.27.031,ratings,2022.1.1,MacIntel,30.01560812
-0.321930732,2.3915,-0.276220657,2.991,0,356,356,263,1,416_8a1f874e0057d67a4e6955865ba88b2d8ce2c8b4469589307687a723_circblurext.jpg,-1.753336,3.088264,circularblurringext,thko3,2022-05-29_09h19.27.031,ratings,2022.1.1,MacIntel,30.01560812
1.040256229,1.3364,1.163035189,1.8788,0,357,357,561,1,1022_cf035e583d41a856836f8b0ae314ecbe79dffd9e40ef6a08cc26028f_blur.jpg,-0.2516452,3.05846,blurring,thko3,2022-05-29_09h19.27.031,ratings,2022.1.1,MacIntel,30.01560812
-1.789806809,1.4199,-1.948166751,2.0052,0,358,358,319,1,460_e06b3af7ff2f2bfb5f9b6e3d5dc25b9aaa40b84823fac8fd934621bd_bw.jpg,-3.430992,-1.607468,blackwhite,thko3,2022-05-29_09h19.27.031,ratings,2022.1.1,MacIntel,30.01560812
-0.520440148,1.1981,-0.317069636,1.7508,0,359,359,140,1,353_44e285740cb41818482ac93fc5fbd72c18029444a1d7506c9fc053e7_edges.jpg,-3.232676,-0.87108,edges,thko3,2022-05-29_09h19.27.031,ratings,2022.1.1,MacIntel,30.01560812
3.711760446,1.622,3.749668536,2.2497,0,360,360,460,1,720_483c541c48959a597fcf44320941afaf8b7695105f90d65b5f6b30f2_circblurint.jpg,2.158732,-0.2539684,circularblurringint,thko3,2022-05-29_09h19.27.031,ratings,2022.1.1,MacIntel,30.01560812
-1.051087112,3.3219,1.290674102,5.3466,0,361,361,490,1,818_877aae033c31e3bbca4486321a5307f87cf53c576c546462d3daf194_circblurint.jpg,-1.277584,0.619436,circularblurringint,thko3,2022-05-29_09h19.27.031,ratings,2022.1.1,MacIntel,30.01560812
3.447123895,1.2598,3.393415244,2.1871,0,362,362,179,1,368_6507b94d7d0199f14efd3706db30c9c44b96085f84e9cc7792e3e0ae_circblurext.jpg,1.959544,0.400336,circularblurringext,thko3,2022-05-29_09h19.27.031,ratings,2022.1.1,MacIntel,30.01560812
-0.291862345,2.5093,-0.390815878,3.1396,0,363,363,161,1,358_157f8ac929713531a15b1ecf115e7b659cb90e83d675251e368d165f_circblurext.jpg,-3.777776,-0.571428,circularblurringext,thko3,2022-05-29_09h19.27.031,ratings,2022.1.1,MacIntel,30.01560812
-0.247504416,1.9475,-0.4841128,2.6955,0,364,364,518,1,860_05c4e22518a30d3d2add458a8fc6488f87b9b02dd8e385ded939f025_edges.jpg,1.955092,0.3097172,edges,thko3,2022-05-29_09h19.27.031,ratings,2022.1.1,MacIntel,30.01560812
-0.617689497,1.3754,-0.393393299,2.0753,0,365,365,237,1,410_9633c4ff6e8888fcfca59a60ca86e9606d3e0736500a254101bdf295_blur.jpg,-0.3677892,2.981028,blurring,thko3,2022-05-29_09h19.27.031,ratings,2022.1.1,MacIntel,30.01560812
1.086950409,1.4402,1.025615792,2.1399,0,366,366,229,1,407_578d31d32e806706dde2563213f130b90e621abfed0e47ecabd85d27_bw.jpg,3.5873,-0.444444,blackwhite,thko3,2022-05-29_09h19.27.031,ratings,2022.1.1,MacIntel,30.01560812
-0.415537402,1.2767,-0.323637202,1.857,0,367,367,434,1,694_f80f33613b268beffd6c044537cf3b44a84683d6e889bc37b8e9c34b_edges.jpg,-0.3785616,3.34728,edges,thko3,2022-05-29_09h19.27.031,ratings,2022.1.1,MacIntel,30.01560812
0.57463228,1.7557,0.492127379,2.415,0,368,368,380,1,640_0ddb4981a5f5842ed5b4f7ef941be53779189df5e718b1fc5475ad80_edges.jpg,2.571428,-1.873016,edges,thko3,2022-05-29_09h19.27.031,ratings,2022.1.1,MacIntel,30.01560812
-0.427986745,1.2884,-0.38522556,1.9427,0,369,369,58,1,137_0e6a04243c0a42a5e2528a2d181255ca2a4b7bd6e7978c5c2059c69f_circblurint.jpg,-0.95238,2.095236,circularblurringint,thko3,2022-05-29_09h19.27.031,ratings,2022.1.1,MacIntel,30.01560812
0.651586868,1.7144,0.769102404,2.2842,0,370,370,590,1,1228_557412d34d6a70b7c5d222e030aa485b351a4574e8ba1a3112d1d13d_edges.jpg,2.137444,0.703464,edges,thko3,2022-05-29_09h19.27.031,ratings,2022.1.1,MacIntel,30.01560812
-1.835171703,1.5111,-2.060696605,2.0156,0,371,371,365,1,508_a7a9519cdc7aad6844030f4e6cd96cffd1b9c49b71e20ea52789bda2_circblurext.jpg,-3.000388,-1.29694,circularblurringext,thko3,2022-05-29_09h19.27.031,ratings,2022.1.1,MacIntel,30.01560812
-1.546798878,1.2795,-1.137619876,3.5794,0,372,372,167,1,361_b5541309527dc3c2422f45a95ebb0ed32005e6fe10d0489a1ff1fbdc_circblurext.jpg,-3.987612,-0.2516452,circularblurringext,thko3,2022-05-29_09h19.27.031,ratings,2022.1.1,MacIntel,30.01560812
1.629576951,1.5459,1.521359562,2.2457,0,373,373,448,1,709_69c01dcde028a2a1a913f1a2a5026ae1748484f75c89217a040c6791_circblurint.jpg,1.432444,-0.01935732,circularblurringint,thko3,2022-05-29_09h19.27.031,ratings,2022.1.1,MacIntel,30.01560812
-1.005421613,4.657,-0.990432568,5.3022,0,374,374,511,1,858_2f6539ee36aba48c38dc716d4f7c3ae93367d6ddf23ab41745d4172c_bw.jpg,0.0623832,0.176752,blackwhite,thko3,2022-05-29_09h19.27.031,ratings,2022.1.1,MacIntel,30.01560812
0.976641366,1.2561,1.128639478,1.8853,0,375,375,120,1,347_27f0e47c2722605b950ccf9fa900f78271e4c3c874064ab5dacac160_orig.jpg,1.838948,0.3097172,original,thko3,2022-05-29_09h19.27.031,ratings,2022.1.1,MacIntel,30.01560812
-0.315722062,1.2155,-0.365762889,1.8115,0,376,376,236,1,410_9633c4ff6e8888fcfca59a60ca86e9606d3e0736500a254101bdf295_edges.jpg,-0.3677892,2.981028,edges,thko3,2022-05-29_09h19.27.031,ratings,2022.1.1,MacIntel,30.01560812
-2.177450916,1.2882,1.75524308,1.842,0,377,377,403,1,686_6745b57686ad5d1bd6cf3e7ed5bc0243a154f8939e88e30321dfcfdb_bw.jpg,-1.523808,3.650792,blackwhite,thko3,2022-05-29_09h19.27.031,ratings,2022.1.1,MacIntel,30.01560812
-2.151893873,1.2223,1.548256178,1.8224,0,378,378,64,1,156_08e8cf8f04630e9213e610580de73f51572d1d589878648700bae4dc_circblurint.jpg,2.222224,0.0,circularblurringint,thko3,2022-05-29_09h19.27.031,ratings,2022.1.1,MacIntel,30.01560812
0.316575868,1.25,0.550270795,1.8104,0,379,379,4,1,13_771f4fcf0a212d25d6a78565e7f34cc5ddd823e7afbdc77ef063326e_circblurint.jpg,2.190476,0.0,circularblurringint,thko3,2022-05-29_09h19.27.031,ratings,2022.1.1,MacIntel,30.01560812
-0.552697342,1.5396,-0.378754005,3.1569,0,380,380,417,1,692_7d7eaf20e6de8956f0fca7500ace97a8599aa8b605a7d690cdb28724_blur.jpg,-2.063492,-1.26984,blurring,thko3,2022-05-29_09h19.27.031,ratings,2022.1.1,MacIntel,30.01560812
-1.396469516,1.2425,0.804588518,1.8734,0,381,381,169,1,365_45a719cabbc9aa308c4fcb30d529489c6966ac4073874af84f665c61_bw.jpg,2.507936,-1.968252,blackwhite,thko3,2022-05-29_09h19.27.031,ratings,2022.1.1,MacIntel,30.01560812
3.297984377,1.3082,3.396392708,2.0423,0,382,382,178,1,368_6507b94d7d0199f14efd3706db30c9c44b96085f84e9cc7792e3e0ae_circblurint.jpg,1.959544,0.400336,circularblurringint,thko3,2022-05-29_09h19.27.031,ratings,2022.1.1,MacIntel,30.01560812
-0.516085393,1.3974,-0.486538205,2.0252,0,383,383,314,1,459_46e25de472bb056cb470716d30937415f7344bfc4354d6eb710d8c9f_edges.jpg,0.03174604,0.0,edges,thko3,2022-05-29_09h19.27.031,ratings,2022.1.1,MacIntel,30.01560812
0.47210922,4.5573,0.991813288,3.9577,0,384,384,398,1,683_a004ad18331da968da5debdd15e1447dd7748750af0bc6c57b844200_edges.jpg,-2.91956,2.466524,edges,thko3,2022-05-29_09h19.27.031,ratings,2022.1.1,MacIntel,30.01560812
0.471536586,1.2393,0.592364479,1.8211,0,385,385,424,1,692_e3e3bf88684fbbcdb9849a4147f9e2fcd39b0f083554a829aca4e9fa_circblurint.jpg,-0.44522,3.135888,circularblurringint,thko3,2022-05-29_09h19.27.031,ratings,2022.1.1,MacIntel,30.01560812
3.012847329,2.1389,3.100580223,2.7395,0,386,386,177,1,368_6507b94d7d0199f14efd3706db30c9c44b96085f84e9cc7792e3e0ae_blur.jpg,1.959544,0.400336,blurring,thko3,2022-05-29_09h19.27.031,ratings,2022.1.1,MacIntel,30.01560812
-0.776627787,1.3444,-0.280595987,1.8708,0,387,387,499,1,854_081a8409e4d6d10923b2dedcc16a3fca405fcd602e55a20d84cac69d_bw.jpg,3.088264,1.21538,blackwhite,thko3,2022-05-29_09h19.27.031,ratings,2022.1.1,MacIntel,30.01560812
0.27309232,1.713,0.496390696,3.213,0,388,388,575,1,1039_d64da8480fc6e94dcdc513237d600570ae0b9fe48795ac6a8b2d29a7_circblurext.jpg,-2.507936,-1.142856,circularblurringext,thko3,2022-05-29_09h19.27.031,ratings,2022.1.1,MacIntel,30.01560812
-0.505448816,1.7717,-0.406448421,2.4058,0,389,389,260,1,416_8a1f874e0057d67a4e6955865ba88b2d8ce2c8b4469589307687a723_edges.jpg,-1.753336,3.088264,edges,thko3,2022-05-29_09h19.27.031,ratings,2022.1.1,MacIntel,30.01560812
-0.331707787,1.2095,-0.332547877,1.7757,0,390,390,556,1,1014_a5c212ca979d482cf94c2db7697aba75620391a64b030ab7ad2bbecf_circblurint.jpg,-3.174604,-1.374372,circularblurringint,thko3,2022-05-29_09h19.27.031,ratings,2022.1.1,MacIntel,30.01560812
-1.956920838,1.2403,1.703386057,1.8832,0,391,391,65,1,156_08e8cf8f04630e9213e610580de73f51572d1d589878648700bae4dc_circblurext.jpg,2.222224,0.0,circularblurringext,thko3,2022-05-29_09h19.27.031,ratings,2022.1.1,MacIntel,30.01560812
3.880730675,1.6184,3.987539913,2.281,0,392,392,580,1,1061_665178b9cb0bc869cc2e2b68def4838db04e66f9531098fb75875a09_circblurint.jpg,0.3492064,-0.3174604,circularblurringint,thko3,2022-05-29_09h19.27.031,ratings,2022.1.1,MacIntel,30.01560812
3.283831993,1.2131,2.955012518,1.7806,0,393,393,567,1,1037_e2eb929a6de79a63ce6cfe5321fcb74a203b134e4094932d90b01d99_blur.jpg,2.651956,0.0,blurring,thko3,2022-05-29_09h19.27.031,ratings,2022.1.1,MacIntel,30.01560812
-0.64642174,1.3814,-0.266663055,2.0089,0,394,394,154,1,355_00a76f54934d36566dd0e7b091b8aa6a56d8e6b32d349aa578a10b45_circblurint.jpg,2.910052,0.3439152,circularblurringint,thko3,2022-05-29_09h19.27.031,ratings,2022.1.1,MacIntel,30.01560812
0.955875697,1.8203,1.072087091,2.3491,0,395,395,559,1,1022_cf035e583d41a856836f8b0ae314ecbe79dffd9e40ef6a08cc26028f_bw.jpg,-0.2516452,3.05846,blackwhite,thko3,2022-05-29_09h19.27.031,ratings,2022.1.1,MacIntel,30.01560812
-0.420757394,1.2949,0.689554393,2.0038,0,396,396,438,1,700_59cb565f134f1afd066d7b6d936c6511b7cb76de0e9cbb5ce15124ad_orig.jpg,0.0,0.0,original,thko3,2022-05-29_09h19.27.031,ratings,2022.1.1,MacIntel,30.01560812
-0.504480712,1.6378,-0.599678411,2.3083,0,397,397,281,1,440_9bf7e8609729bf888835168834da6c3ff30b75d0d4f36e2ee6918bcc_circblurext.jpg,-2.284164,2.710028,circularblurringext,thko3,2022-05-29_09h19.27.031,ratings,2022.1.1,MacIntel,30.01560812
-1.994155712,1.185,1.451464021,1.7055,0,398,398,582,1,1225_59c67a821456f2cce3e5acf66d7f00076bd02caffc984c1eb0df794e_orig.jpg,-0.444444,3.809524,original,thko3,2022-05-29_09h19.27.031,ratings,2022.1.1,MacIntel,30.01560812
-1.534597561,3.0779,-1.330332095,3.7523,0,399,399,415,1,692_7d7eaf20e6de8956f0fca7500ace97a8599aa8b605a7d690cdb28724_bw.jpg,-2.063492,-1.26984,blackwhite,thko3,2022-05-29_09h19.27.031,ratings,2022.1.1,MacIntel,30.01560812
-1.572674812,1.1316,-1.407710729,1.6844,0,400,400,528,1,915_dc9fd40a3b5d64a180833a7bac86e7556c24f681f473fe255e41f936_orig.jpg,-3.09294,-0.918696,original,thko3,2022-05-29_09h19.27.031,ratings,2022.1.1,MacIntel,30.01560812
0.67671758,1.1949,0.856630704,1.7192,0,401,401,428,1,694_7a14b8ab7c564dcb0f628c4de7f6cb54e4c5f6601f774bf167641c37_edges.jpg,1.819588,0.116144,edges,thko3,2022-05-29_09h19.27.031,ratings,2022.1.1,MacIntel,30.01560812
2.53834928,8.4049,2.775744035,9.1595,0,402,402,114,1,332_4d584229bdae2e1782f77f0e953e528f13c3dfa79b4b94736c0310fa_orig.jpg,3.157348,0.483092,original,thko3,2022-05-29_09h19.27.031,ratings,2022.1.1,MacIntel,30.01560812
-0.449841674,1.5571,-0.269209615,2.1896,0,403,403,348,1,498_305b74cdc4784d9d25e72724302e5402def70177ea31ae7e25fab66b_orig.jpg,3.04762,-0.444444,original,thko3,2022-05-29_09h19.27.031,ratings,2022.1.1,MacIntel,30.01560812
-2.152240196,5.9897,1.358823169,6.7383,0,404,404,110,1,293_3dfdfafc0c6a54b2da7453750ac281f7718c0b3337b0a74c4563d6bd_edges.jpg,-2.574524,2.632596,edges,thko3,2022-05-29_09h19.27.031,ratings,2022.1.1,MacIntel,30.01560812
-2.080199281,1.1853,1.336138436,1.7268,0,405,405,13,1,39_2fafccaa4dc69045a05845f59c6b3cd2edcf7e0e0c108b24e553afe0_bw.jpg,2.022756,0.463548,blackwhite,thko3,2022-05-29_09h19.27.031,ratings,2022.1.1,MacIntel,30.01560812
1.641354222,1.1943,1.805845111,1.7172,0,406,406,71,1,172_c641c6c56ca6b594b773084e1363c852abdb65f988d7ff802ee503f2_circblurext.jpg,0.379572,0.01725328,circularblurringext,thko3,2022-05-29_09h19.27.031,ratings,2022.1.1,MacIntel,30.01560812
-0.34581788,1.0953,-0.305011192,1.7069,0,407,407,45,1,92_5d20d78a8e57e628c6930676473a4e0a485e715841efd6286c660020_blur.jpg,2.126984,0.0,blurring,thko3,2022-05-29_09h19.27.031,ratings,2022.1.1,MacIntel,30.01560812
-1.433878124,1.109,-1.33547665,1.8132,0,408,408,533,1,915_dc9fd40a3b5d64a180833a7bac86e7556c24f681f473fe255e41f936_circblurext.jpg,-3.09294,-0.918696,circularblurringext,thko3,2022-05-29_09h19.27.031,ratings,2022.1.1,MacIntel,30.01560812
1.326261942,1.1119,1.486512373,1.6968,0,409,409,381,1,640_0ddb4981a5f5842ed5b4f7ef941be53779189df5e718b1fc5475ad80_blur.jpg,2.571428,-1.873016,blurring,thko3,2022-05-29_09h19.27.031,ratings,2022.1.1,MacIntel,30.01560812
-0.467602448,1.3383,-0.377140117,1.9485,0,410,410,170,1,365_45a719cabbc9aa308c4fcb30d529489c6966ac4073874af84f665c61_edges.jpg,2.507936,-1.968252,edges,thko3,2022-05-29_09h19.27.031,ratings,2022.1.1,MacIntel,30.01560812
-0.426382001,2.3166,-0.366519542,3.0504,0,411,411,96,1,267_792043debad81ce271cec5b3c3bd9d264efc13f362bec9c7a3f72fe7_orig.jpg,1.980616,0.2107036,original,thko3,2022-05-29_09h19.27.031,ratings,2022.1.1,MacIntel,30.01560812
-1.671808936,1.6082,1.786088693,2.1448,0,412,412,28,1,59_8568373b727f29d67ba6ce4c360dd918c8b08b13495fca56bdda5e82_circblurint.jpg,2.064896,0.505688,circularblurringint,thko3,2022-05-29_09h19.27.031,ratings,2022.1.1,MacIntel,30.01560812
-2.527362952,2.5431,-2.117191843,1.9413,0,413,413,496,1,824_b1d91cc824ce0d3d383d3147da88d3d6dbaf6be918bab79e3ec8f501_circblurint.jpg,-3.645176,-1.432784,circularblurringint,thko3,2022-05-29_09h19.27.031,ratings,2022.1.1,MacIntel,30.01560812
2.034224035,1.2461,1.971494982,1.8927,0,414,414,79,1,242_85283f6935a89812ab229dcad9ba184529c9242ac3106d768ecf3ab3_bw.jpg,2.14918,-0.2949852,blackwhite,thko3,2022-05-29_09h19.27.031,ratings,2022.1.1,MacIntel,30.01560812
-2.001137037,1.1093,-1.87347755,1.6769,0,415,415,330,1,482_a1cd28915c5044c018195ab0fff10dcc95e385246b045a7cd4463ff7_orig.jpg,-3.361852,-1.555612,original,thko3,2022-05-29_09h19.27.031,ratings,2022.1.1,MacIntel,30.01560812
-0.387229205,2.4092,-0.357067094,3.0965,0,416,416,152,1,355_00a76f54934d36566dd0e7b091b8aa6a56d8e6b32d349aa578a10b45_edges.jpg,2.910052,0.3439152,edges,thko3,2022-05-29_09h19.27.031,ratings,2022.1.1,MacIntel,30.01560812
1.438831801,1.2902,1.435262273,1.9452,0,417,417,143,1,353_44e285740cb41818482ac93fc5fbd72c18029444a1d7506c9fc053e7_circblurext.jpg,-3.232676,-0.87108,circularblurringext,thko3,2022-05-29_09h19.27.031,ratings,2022.1.1,MacIntel,30.01560812
-0.504058952,3.1143,-0.236377502,3.6789,0,418,418,332,1,482_a1cd28915c5044c018195ab0fff10dcc95e385246b045a7cd4463ff7_edges.jpg,-3.361852,-1.555612,edges,thko3,2022-05-29_09h19.27.031,ratings,2022.1.1,MacIntel,30.01560812
1.143606807,1.3983,1.563401812,2.0269,0,419,419,597,1,1239_cee00457f4cfb76a407b12fd5ad714d440a4614c1e5467ee16caf618_blur.jpg,-0.03174604,0.190476,blurring,thko3,2022-05-29_09h19.27.031,ratings,2022.1.1,MacIntel,30.01560812
-0.301184494,1.2633,0.63352892,1.8445,0,420,420,443,1,700_59cb565f134f1afd066d7b6d936c6511b7cb76de0e9cbb5ce15124ad_circblurext.jpg,0.0,0.0,circularblurringext,thko3,2022-05-29_09h19.27.031,ratings,2022.1.1,MacIntel,30.01560812
-0.543039158,1.2126,-0.335449905,1.7587,0,421,421,507,1,855_66d893451dfd1e7615132071c6c8a82b02dc2b37781cd89400883b26_blur.jpg,2.69484,0.2143624,blurring,thko3,2022-05-29_09h19.27.031,ratings,2022.1.1,MacIntel,30.01560812
-0.512806182,1.7645,-0.307182855,2.3455,0,422,422,182,1,369_98db62a1bdabfd1bc551180da6658005b461585cd21614633cf76470_edges.jpg,2.190476,-0.03174604,edges,thko3,2022-05-29_09h19.27.031,ratings,2022.1.1,MacIntel,30.01560812
-2.563383981,1.8199,-2.196769571,2.4182,0,423,423,162,1,361_b5541309527dc3c2422f45a95ebb0ed32005e6fe10d0489a1ff1fbdc_orig.jpg,-3.987612,-0.2516452,original,thko3,2022-05-29_09h19.27.031,ratings,2022.1.1,MacIntel,30.01560812
-0.950882015,1.2485,-1.173196285,1.7502,0,424,424,126,1,349_18d92ef5c21ca70a3dd237aad251594e1688bbe01d8cff37b89c46b8_orig.jpg,-2.74874,-1.258228,original,thko3,2022-05-29_09h19.27.031,ratings,2022.1.1,MacIntel,30.01560812
1.169744484,1.4179,1.549568319,1.9885,0,425,425,23,1,48_2cc936b2483ab2944c9158e163342b874ef6c1492fd8fca08c0e096e_circblurext.jpg,-1.264224,-0.779604,circularblurringext,thko3,2022-05-29_09h19.27.031,ratings,2022.1.1,MacIntel,30.01560812
-0.651091958,1.7086,-0.297648112,2.6405,0,426,426,256,1,416_5eb54976bb41ce2a6d129ef985f792e716f010fb9b69b15f50f5d2db_circblurint.jpg,-2.58766,2.602972,circularblurringint,thko3,2022-05-29_09h19.27.031,ratings,2022.1.1,MacIntel,30.01560812
-0.74677771,2.4911,-0.536040688,3.5184,0,427,427,200,1,380_34772591c787182a37724027eac6948ebc9d4064f6a601d23b923b8e_edges.jpg,2.222224,-0.063492,edges,thko3,2022-05-29_09h19.27.031,ratings,2022.1.1,MacIntel,30.01560812
-0.219924298,1.1929,-0.365303411,1.8062,0,428,428,188,1,369_c99797771115d7627d4abe3415f814497288f91a7be1a04c17c776b9_edges.jpg,3.619824,-0.174216,edges,thko3,2022-05-29_09h19.27.031,ratings,2022.1.1,MacIntel,30.01560812
0.905794865,1.2094,1.240164653,1.8931,0,429,429,83,1,242_85283f6935a89812ab229dcad9ba184529c9242ac3106d768ecf3ab3_circblurext.jpg,2.14918,-0.2949852,circularblurringext,thko3,2022-05-29_09h19.27.031,ratings,2022.1.1,MacIntel,30.01560812
-0.840548969,2.2054,-0.908807762,2.8051,0,430,430,370,1,616_05a637f5281666f53d4e2ef69351485fc21d629b37ee2006b2076eb6_circblurint.jpg,-2.380952,-0.832364,circularblurringint,thko3,2022-05-29_09h19.27.031,ratings,2022.1.1,MacIntel,30.01560812
-1.217155314,1.2062,-1.048870872,1.7829,0,431,431,295,1,449_9c1e990a3480e5b51430fe76b0188e69ba2468fd6a866b88b2d0dd75_bw.jpg,0.095238,0.03174604,blackwhite,thko3,2022-05-29_09h19.27.031,ratings,2022.1.1,MacIntel,30.01560812
-0.865347073,6.3453,-0.381563451,6.9121,0,432,432,513,1,858_2f6539ee36aba48c38dc716d4f7c3ae93367d6ddf23ab41745d4172c_blur.jpg,0.0623832,0.176752,blurring,thko3,2022-05-29_09h19.27.031,ratings,2022.1.1,MacIntel,30.01560812
-0.241639784,4.7837,-0.400655796,5.4119,0,433,433,557,1,1014_a5c212ca979d482cf94c2db7697aba75620391a64b030ab7ad2bbecf_circblurext.jpg,-3.174604,-1.374372,circularblurringext,thko3,2022-05-29_09h19.27.031,ratings,2022.1.1,MacIntel,30.01560812
-1.166389837,1.3311,-1.268148244,1.9583,0,434,434,242,1,411_adfd0d5782129756321ff671d0cfb712528504c66c863df11aabd1e7_edges.jpg,-3.392332,-1.369576,edges,thko3,2022-05-29_09h19.27.031,ratings,2022.1.1,MacIntel,30.01560812
-2.071848666,1.714,-2.145732065,2.2835,0,435,435,156,1,358_157f8ac929713531a15b1ecf115e7b659cb90e83d675251e368d165f_orig.jpg,-3.777776,-0.571428,original,thko3,2022-05-29_09h19.27.031,ratings,2022.1.1,MacIntel,30.01560812
2.008714997,1.2766,1.990167854,1.831,0,436,436,591,1,1228_557412d34d6a70b7c5d222e030aa485b351a4574e8ba1a3112d1d13d_blur.jpg,2.137444,0.703464,blurring,thko3,2022-05-29_09h19.27.031,ratings,2022.1.1,MacIntel,30.01560812
1.175965727,1.2825,1.090820541,1.805,0,437,437,226,1,403_57ac47f43882fc031a6067b1a388c0b2cbe8708dcbd2ff1019932eff_circblurint.jpg,-3.333332,-1.396824,circularblurringint,thko3,2022-05-29_09h19.27.031,ratings,2022.1.1,MacIntel,30.01560812
-1.120572322,2.5833,-0.978699873,3.2305,0,438,438,211,1,394_8e3a0cb945144d53bd1ace04b6256237ed9dcbbd9cb83f8a4886b0e6_bw.jpg,-2.593884,2.651956,blackwhite,thko3,2022-05-29_09h19.27.031,ratings,2022.1.1,MacIntel,30.01560812
-0.373867764,1.5497,-0.386104512,2.1178,0,439,439,10,1,28_6318543b74eeb646a1735477ebc023fdc9ac3849bc0db1957c272a26_circblurint.jpg,2.811244,-0.74584,circularblurringint,thko3,2022-05-29_09h19.27.031,ratings,2022.1.1,MacIntel,30.01560812
3.08397386,1.4174,2.950054269,2.1087,0,440,440,175,1,368_6507b94d7d0199f14efd3706db30c9c44b96085f84e9cc7792e3e0ae_bw.jpg,1.959544,0.400336,blackwhite,thko3,2022-05-29_09h19.27.031,ratings,2022.1.1,MacIntel,30.01560812
-2.962301304,3.9194,-2.951742451,4.6942,0,441,441,306,1,455_34a7d8167619d110206c369e3f7dce8a3f99db763a9d8e2b956501d3_orig.jpg,-2.526412,-0.3827896,original,thko3,2022-05-29_09h19.27.031,ratings,2022.1.1,MacIntel,30.01560812
