valence_slider.response,valence_slider.rt,arousal_slider.response,arousal_slider.rt,trials.thisRepN,trials.thisTrialN,trials.thisN,trials.thisIndex,trials.ran,img_name,vm,am,manipulation,participant,date,expName,psychopyVersion,OS,frameRate
0.823970037,8.4344,-1.54494382,12.6746,0,0,0,550,1,1010_06d15f44b979c086561137000ec070ba4cd479856f92840a7850b2bf_circblurint.jpg,0.189786,-0.189786,circularblurringint,vamo24,2022-05-05_14h33.07.365,ratings,2022.1.1,Win32,60.13229104
-0.374531835,2.4538,-0.440074906,3.5404,0,1,1,423,1,692_e3e3bf88684fbbcdb9849a4147f9e2fcd39b0f083554a829aca4e9fa_blur.jpg,-0.44522,3.135888,blurring,vamo24,2022-05-05_14h33.07.365,ratings,2022.1.1,Win32,60.13229104
1.516853933,8.0425,-1.217228464,8.7541,0,2,2,216,1,396_208259ea431d47bb7f3946213eb099834eb119756ce304ad473d4d9f_orig.jpg,2.857144,-0.3809524,original,vamo24,2022-05-05_14h33.07.365,ratings,2022.1.1,Win32,60.13229104
-0.421348315,4.2033,0.926966292,4.8756,0,3,3,373,1,620_9674719009d75dcfeaed7f15932c43e1fd1af5e25d47b8aadd61efe2_bw.jpg,-0.561364,1.142084,blackwhite,vamo24,2022-05-05_14h33.07.365,ratings,2022.1.1,Win32,60.13229104
-0.514981273,4.0189,0.31835206,6.2979,0,4,4,502,1,854_081a8409e4d6d10923b2dedcc16a3fca405fcd602e55a20d84cac69d_circblurint.jpg,3.088264,1.21538,circularblurringint,vamo24,2022-05-05_14h33.07.365,ratings,2022.1.1,Win32,60.13229104
-0.402621723,3.2482,-0.43071161,6.6477,0,5,5,382,1,640_0ddb4981a5f5842ed5b4f7ef941be53779189df5e718b1fc5475ad80_circblurint.jpg,2.571428,-1.873016,circularblurringint,vamo24,2022-05-05_14h33.07.365,ratings,2022.1.1,Win32,60.13229104
-0.702247191,2.768,0.580524345,4.7517,0,6,6,480,1,759_95e1c46ed9a337414d5c8eada8fa8b9632e18751f5ce6ed587806e91_orig.jpg,2.126984,0.0,original,vamo24,2022-05-05_14h33.07.365,ratings,2022.1.1,Win32,60.13229104
1.900749064,2.8773,0.187265918,6.3444,0,7,7,463,1,736_bb85db1bcda8eb34299aa5791ac65a0a7c343266eb2d6e6e328ec0e1_bw.jpg,3.650792,-0.03174604,blackwhite,vamo24,2022-05-05_14h33.07.365,ratings,2022.1.1,Win32,60.13229104
-0.468164794,2.0579,-0.383895131,2.7396,0,8,8,239,1,410_9633c4ff6e8888fcfca59a60ca86e9606d3e0736500a254101bdf295_circblurext.jpg,-0.3677892,2.981028,circularblurringext,vamo24,2022-05-05_14h33.07.365,ratings,2022.1.1,Win32,60.13229104
0.739700375,3.5493,0.009363296,6.6991,0,9,9,120,1,347_27f0e47c2722605b950ccf9fa900f78271e4c3c874064ab5dacac160_orig.jpg,1.838948,0.3097172,original,vamo24,2022-05-05_14h33.07.365,ratings,2022.1.1,Win32,60.13229104
1.535580524,1.9709,1.235955056,3.6666,0,10,10,150,1,355_00a76f54934d36566dd0e7b091b8aa6a56d8e6b32d349aa578a10b45_orig.jpg,2.910052,0.3439152,original,vamo24,2022-05-05_14h33.07.365,ratings,2022.1.1,Win32,60.13229104
-1.338951311,6.6214,0.767790262,7.9734,0,11,11,397,1,683_a004ad18331da968da5debdd15e1447dd7748750af0bc6c57b844200_bw.jpg,-2.91956,2.466524,blackwhite,vamo24,2022-05-05_14h33.07.365,ratings,2022.1.1,Win32,60.13229104
1.43258427,4.645,0.056179775,5.7965,0,12,12,116,1,332_4d584229bdae2e1782f77f0e953e528f13c3dfa79b4b94736c0310fa_edges.jpg,3.157348,0.483092,edges,vamo24,2022-05-05_14h33.07.365,ratings,2022.1.1,Win32,60.13229104
-1.095505618,2.4017,-0.411985019,5.6734,0,13,13,159,1,358_157f8ac929713531a15b1ecf115e7b659cb90e83d675251e368d165f_blur.jpg,-3.777776,-0.571428,blurring,vamo24,2022-05-05_14h33.07.365,ratings,2022.1.1,Win32,60.13229104
-0.533707865,1.5247,-0.308988764,2.3665,0,14,14,279,1,440_9bf7e8609729bf888835168834da6c3ff30b75d0d4f36e2ee6918bcc_blur.jpg,-2.284164,2.710028,blurring,vamo24,2022-05-05_14h33.07.365,ratings,2022.1.1,Win32,60.13229104
1.900749064,1.6531,1.235955056,2.5937,0,15,15,230,1,407_578d31d32e806706dde2563213f130b90e621abfed0e47ecabd85d27_edges.jpg,3.5873,-0.444444,edges,vamo24,2022-05-05_14h33.07.365,ratings,2022.1.1,Win32,60.13229104
-2.209737828,2.557,-0.168539326,3.8724,0,16,16,310,1,455_34a7d8167619d110206c369e3f7dce8a3f99db763a9d8e2b956501d3_circblurint.jpg,-2.526412,-0.3827896,circularblurringint,vamo24,2022-05-05_14h33.07.365,ratings,2022.1.1,Win32,60.13229104
0.411985019,3.8105,1.5917603,4.4273,0,17,17,421,1,692_e3e3bf88684fbbcdb9849a4147f9e2fcd39b0f083554a829aca4e9fa_bw.jpg,-0.44522,3.135888,blackwhite,vamo24,2022-05-05_14h33.07.365,ratings,2022.1.1,Win32,60.13229104
-0.449438202,4.7289,-0.355805243,5.8446,0,18,18,77,1,236_f645730e1eb06155418c9a571329cc7fa320654fcaaedf1048b5cc11_circblurext.jpg,2.253968,0.0,circularblurringext,vamo24,2022-05-05_14h33.07.365,ratings,2022.1.1,Win32,60.13229104
0.524344569,3.1669,-1.132958801,3.7586,0,19,19,110,1,293_3dfdfafc0c6a54b2da7453750ac281f7718c0b3337b0a74c4563d6bd_edges.jpg,-2.574524,2.632596,edges,vamo24,2022-05-05_14h33.07.365,ratings,2022.1.1,Win32,60.13229104
-0.936329588,2.284,-0.449438202,4.8432,0,20,20,361,1,508_a7a9519cdc7aad6844030f4e6cd96cffd1b9c49b71e20ea52789bda2_bw.jpg,-3.000388,-1.29694,blackwhite,vamo24,2022-05-05_14h33.07.365,ratings,2022.1.1,Win32,60.13229104
1.104868914,6.6583,-0.505617978,8.2023,0,21,21,31,1,60_ad52063167538de24f94d7dfd04808cb94cf8f426c40871d2f126505_bw.jpg,2.158732,0.0,blackwhite,vamo24,2022-05-05_14h33.07.365,ratings,2022.1.1,Win32,60.13229104
-1.189138577,9.2247,-0.31835206,5.4044,0,22,22,377,1,620_9674719009d75dcfeaed7f15932c43e1fd1af5e25d47b8aadd61efe2_circblurext.jpg,-0.561364,1.142084,circularblurringext,vamo24,2022-05-05_14h33.07.365,ratings,2022.1.1,Win32,60.13229104
0.664794007,1.6252,-1.095505618,2.6895,0,23,23,352,1,498_305b74cdc4784d9d25e72724302e5402def70177ea31ae7e25fab66b_circblurint.jpg,3.04762,-0.444444,circularblurringint,vamo24,2022-05-05_14h33.07.365,ratings,2022.1.1,Win32,60.13229104
-0.496254682,1.7614,-0.47752809,2.6973,0,24,24,254,1,416_5eb54976bb41ce2a6d129ef985f792e716f010fb9b69b15f50f5d2db_edges.jpg,-2.58766,2.602972,edges,vamo24,2022-05-05_14h33.07.365,ratings,2022.1.1,Win32,60.13229104
0.43071161,2.1546,-0.262172285,2.9131,0,25,25,146,1,354_e46c3ec6fb00773f64f2bcd212385f253c389808fe724b7cf8611051_edges.jpg,2.018292,0.0,edges,vamo24,2022-05-05_14h33.07.365,ratings,2022.1.1,Win32,60.13229104
0.028089888,1.864,-0.290262172,2.7058,0,26,26,551,1,1010_06d15f44b979c086561137000ec070ba4cd479856f92840a7850b2bf_circblurext.jpg,0.189786,-0.189786,circularblurringext,vamo24,2022-05-05_14h33.07.365,ratings,2022.1.1,Win32,60.13229104
0.056179775,1.705,0.215355805,4.7613,0,27,27,124,1,347_27f0e47c2722605b950ccf9fa900f78271e4c3c874064ab5dacac160_circblurint.jpg,1.838948,0.3097172,circularblurringint,vamo24,2022-05-05_14h33.07.365,ratings,2022.1.1,Win32,60.13229104
-0.374531835,2.1835,-0.374531835,3.0155,0,28,28,581,1,1061_665178b9cb0bc869cc2e2b68def4838db04e66f9531098fb75875a09_circblurext.jpg,0.3492064,-0.3174604,circularblurringext,vamo24,2022-05-05_14h33.07.365,ratings,2022.1.1,Win32,60.13229104
0.814606742,2.0121,0.168539326,5.8521,0,29,29,566,1,1037_e2eb929a6de79a63ce6cfe5321fcb74a203b134e4094932d90b01d99_edges.jpg,2.651956,0.0,edges,vamo24,2022-05-05_14h33.07.365,ratings,2022.1.1,Win32,60.13229104
1.348314607,1.4879,1.554307116,1.9924,0,30,30,456,1,720_483c541c48959a597fcf44320941afaf8b7695105f90d65b5f6b30f2_orig.jpg,2.158732,-0.2539684,original,vamo24,2022-05-05_14h33.07.365,ratings,2022.1.1,Win32,60.13229104
-0.468164794,1.6604,-0.393258427,2.3799,0,31,31,167,1,361_b5541309527dc3c2422f45a95ebb0ed32005e6fe10d0489a1ff1fbdc_circblurext.jpg,-3.987612,-0.2516452,circularblurringext,vamo24,2022-05-05_14h33.07.365,ratings,2022.1.1,Win32,60.13229104
0.486891386,4.5836,0.131086142,5.4255,0,32,32,312,1,459_46e25de472bb056cb470716d30937415f7344bfc4354d6eb710d8c9f_orig.jpg,0.03174604,0.0,original,vamo24,2022-05-05_14h33.07.365,ratings,2022.1.1,Win32,60.13229104
-0.346441948,1.5297,-0.365168539,2.2099,0,33,33,488,1,818_877aae033c31e3bbca4486321a5307f87cf53c576c546462d3daf194_edges.jpg,-1.277584,0.619436,edges,vamo24,2022-05-05_14h33.07.365,ratings,2022.1.1,Win32,60.13229104
-0.205992509,5.4621,0.833333333,6.0461,0,34,34,511,1,858_2f6539ee36aba48c38dc716d4f7c3ae93367d6ddf23ab41745d4172c_bw.jpg,0.0623832,0.176752,blackwhite,vamo24,2022-05-05_14h33.07.365,ratings,2022.1.1,Win32,60.13229104
-0.533707865,1.1099,-0.31835206,1.8882,0,35,35,57,1,137_0e6a04243c0a42a5e2528a2d181255ca2a4b7bd6e7978c5c2059c69f_blur.jpg,-0.95238,2.095236,blurring,vamo24,2022-05-05_14h33.07.365,ratings,2022.1.1,Win32,60.13229104
-0.421348315,5.1312,-0.402621723,6.1237,0,36,36,398,1,683_a004ad18331da968da5debdd15e1447dd7748750af0bc6c57b844200_edges.jpg,-2.91956,2.466524,edges,vamo24,2022-05-05_14h33.07.365,ratings,2022.1.1,Win32,60.13229104
0.79588015,1.7408,0.102996255,2.5314,0,37,37,481,1,759_95e1c46ed9a337414d5c8eada8fa8b9632e18751f5ce6ed587806e91_bw.jpg,2.126984,0.0,blackwhite,vamo24,2022-05-05_14h33.07.365,ratings,2022.1.1,Win32,60.13229104
0.74906367,2.8912,-0.514981273,3.6183,0,38,38,287,1,440_dc6413e2b65369ee2587f4d85621742fe4ca87392d0a8ad2ea7d94e3_circblurext.jpg,-3.016216,1.69404,circularblurringext,vamo24,2022-05-05_14h33.07.365,ratings,2022.1.1,Win32,60.13229104
-0.486891386,1.2863,-0.346441948,2.0438,0,39,39,555,1,1014_a5c212ca979d482cf94c2db7697aba75620391a64b030ab7ad2bbecf_blur.jpg,-3.174604,-1.374372,blurring,vamo24,2022-05-05_14h33.07.365,ratings,2022.1.1,Win32,60.13229104
1.563670412,2.6617,0.308988764,3.5897,0,40,40,76,1,236_f645730e1eb06155418c9a571329cc7fa320654fcaaedf1048b5cc11_circblurint.jpg,2.253968,0.0,circularblurringint,vamo24,2022-05-05_14h33.07.365,ratings,2022.1.1,Win32,60.13229104
-2.350187266,1.5592,1.207865169,2.2468,0,41,41,136,1,349_8809a67686d34844c915d7700e2ea72ad1c02ae232ae0d3cc0e458d4_circblurint.jpg,-3.619048,-0.2857144,circularblurringint,vamo24,2022-05-05_14h33.07.365,ratings,2022.1.1,Win32,60.13229104
-0.720973783,2.0382,0.168539326,3.1212,0,42,42,376,1,620_9674719009d75dcfeaed7f15932c43e1fd1af5e25d47b8aadd61efe2_circblurint.jpg,-0.561364,1.142084,circularblurringint,vamo24,2022-05-05_14h33.07.365,ratings,2022.1.1,Win32,60.13229104
-3.520599251,1.2121,2.350187266,3.38,0,43,43,331,1,482_a1cd28915c5044c018195ab0fff10dcc95e385246b045a7cd4463ff7_bw.jpg,-3.361852,-1.555612,blackwhite,vamo24,2022-05-05_14h33.07.365,ratings,2022.1.1,Win32,60.13229104
-3.314606742,1.6917,1.779026217,2.9094,0,44,44,131,1,349_18d92ef5c21ca70a3dd237aad251594e1688bbe01d8cff37b89c46b8_circblurext.jpg,-2.74874,-1.258228,circularblurringext,vamo24,2022-05-05_14h33.07.365,ratings,2022.1.1,Win32,60.13229104
-0.823970037,5.1948,-0.402621723,3.4347,0,45,45,316,1,459_46e25de472bb056cb470716d30937415f7344bfc4354d6eb710d8c9f_circblurint.jpg,0.03174604,0.0,circularblurringint,vamo24,2022-05-05_14h33.07.365,ratings,2022.1.1,Win32,60.13229104
0.514981273,1.497,0.365168539,3.6006,0,46,46,568,1,1037_e2eb929a6de79a63ce6cfe5321fcb74a203b134e4094932d90b01d99_circblurint.jpg,2.651956,0.0,circularblurringint,vamo24,2022-05-05_14h33.07.365,ratings,2022.1.1,Win32,60.13229104
0.74906367,1.6568,0.065543071,2.4482,0,47,47,499,1,854_081a8409e4d6d10923b2dedcc16a3fca405fcd602e55a20d84cac69d_bw.jpg,3.088264,1.21538,blackwhite,vamo24,2022-05-05_14h33.07.365,ratings,2022.1.1,Win32,60.13229104
-0.421348315,1.4573,-0.337078652,2.5137,0,48,48,311,1,455_34a7d8167619d110206c369e3f7dce8a3f99db763a9d8e2b956501d3_circblurext.jpg,-2.526412,-0.3827896,circularblurringext,vamo24,2022-05-05_14h33.07.365,ratings,2022.1.1,Win32,60.13229104
0.543071161,2.8847,-0.365168539,1.5642,0,49,49,33,1,60_ad52063167538de24f94d7dfd04808cb94cf8f426c40871d2f126505_blur.jpg,2.158732,0.0,blurring,vamo24,2022-05-05_14h33.07.365,ratings,2022.1.1,Win32,60.13229104
-1.853932584,2.9251,0.224719101,5.2758,0,50,50,152,1,355_00a76f54934d36566dd0e7b091b8aa6a56d8e6b32d349aa578a10b45_edges.jpg,2.910052,0.3439152,edges,vamo24,2022-05-05_14h33.07.365,ratings,2022.1.1,Win32,60.13229104
-0.374531835,1.2708,-0.337078652,2.0048,0,51,51,478,1,748_e519892faa7c772a0afaf9eeff36cf0e411574027ab3d9aa4947a048_circblurint.jpg,-1.813112,3.307432,circularblurringint,vamo24,2022-05-05_14h33.07.365,ratings,2022.1.1,Win32,60.13229104
-0.402621723,1.4239,-0.346441948,2.2956,0,52,52,296,1,449_9c1e990a3480e5b51430fe76b0188e69ba2468fd6a866b88b2d0dd75_edges.jpg,0.095238,0.03174604,edges,vamo24,2022-05-05_14h33.07.365,ratings,2022.1.1,Win32,60.13229104
0.842696629,1.4576,0.262172285,2.3242,0,53,53,447,1,709_69c01dcde028a2a1a913f1a2a5026ae1748484f75c89217a040c6791_blur.jpg,1.432444,-0.01935732,blurring,vamo24,2022-05-05_14h33.07.365,ratings,2022.1.1,Win32,60.13229104
1.132958801,1.2175,0.15917603,1.8879,0,54,54,119,1,332_4d584229bdae2e1782f77f0e953e528f13c3dfa79b4b94736c0310fa_circblurext.jpg,3.157348,0.483092,circularblurringext,vamo24,2022-05-05_14h33.07.365,ratings,2022.1.1,Win32,60.13229104
1.095505618,1.2871,0.777153558,4.9036,0,55,55,485,1,759_95e1c46ed9a337414d5c8eada8fa8b9632e18751f5ce6ed587806e91_circblurext.jpg,2.126984,0.0,circularblurringext,vamo24,2022-05-05_14h33.07.365,ratings,2022.1.1,Win32,60.13229104
-0.449438202,1.5175,-0.290262172,2.0701,0,56,56,21,1,48_2cc936b2483ab2944c9158e163342b874ef6c1492fd8fca08c0e096e_blur.jpg,-1.264224,-0.779604,blurring,vamo24,2022-05-05_14h33.07.365,ratings,2022.1.1,Win32,60.13229104
-0.411985019,1.2005,-0.280898876,1.817,0,57,57,47,1,92_5d20d78a8e57e628c6930676473a4e0a485e715841efd6286c660020_circblurext.jpg,2.126984,0.0,circularblurringext,vamo24,2022-05-05_14h33.07.365,ratings,2022.1.1,Win32,60.13229104
-0.468164794,1.1091,-0.458801498,1.6779,0,58,58,317,1,459_46e25de472bb056cb470716d30937415f7344bfc4354d6eb710d8c9f_circblurext.jpg,0.03174604,0.0,circularblurringext,vamo24,2022-05-05_14h33.07.365,ratings,2022.1.1,Win32,60.13229104
2.209737828,3.0223,1.601123596,2.1187,0,59,59,37,1,82_43f4d5aec7c2e5bd495473f6708a0f2d47c9fe34e1fe9436646cb036_bw.jpg,2.022756,0.505688,blackwhite,vamo24,2022-05-05_14h33.07.365,ratings,2022.1.1,Win32,60.13229104
-1.301498127,1.9763,0.514981273,2.6891,0,60,60,356,1,500_3b520c7f352afa1a9f8c07e56cc0588cdc04d25ff6e7b602b5e280cb_edges.jpg,-0.8328,3.11766,edges,vamo24,2022-05-05_14h33.07.365,ratings,2022.1.1,Win32,60.13229104
-3.558052434,4.319,0.964419476,6.4464,0,61,61,533,1,915_dc9fd40a3b5d64a180833a7bac86e7556c24f681f473fe255e41f936_circblurext.jpg,-3.09294,-0.918696,circularblurringext,vamo24,2022-05-05_14h33.07.365,ratings,2022.1.1,Win32,60.13229104
-0.833333333,4.1684,1.498127341,5.2622,0,62,62,283,1,440_dc6413e2b65369ee2587f4d85621742fe4ca87392d0a8ad2ea7d94e3_bw.jpg,-3.016216,1.69404,blackwhite,vamo24,2022-05-05_14h33.07.365,ratings,2022.1.1,Win32,60.13229104
0.852059925,1.6203,1.06741573,2.2986,0,63,63,13,1,39_2fafccaa4dc69045a05845f59c6b3cd2edcf7e0e0c108b24e553afe0_bw.jpg,2.022756,0.463548,blackwhite,vamo24,2022-05-05_14h33.07.365,ratings,2022.1.1,Win32,60.13229104
-0.280898876,1.4909,-0.262172285,2.0263,0,64,64,20,1,48_2cc936b2483ab2944c9158e163342b874ef6c1492fd8fca08c0e096e_edges.jpg,-1.264224,-0.779604,edges,vamo24,2022-05-05_14h33.07.365,ratings,2022.1.1,Win32,60.13229104
-2.874531835,2.1242,1.554307116,2.8413,0,65,65,84,1,243_beddb302dcb21071d88c8d2cab07002050d36b3001ef28f89389fa56_orig.jpg,-0.3450656,-0.2070392,original,vamo24,2022-05-05_14h33.07.365,ratings,2022.1.1,Win32,60.13229104
0.065543071,4.1453,1.22659176,4.8894,0,66,66,501,1,854_081a8409e4d6d10923b2dedcc16a3fca405fcd602e55a20d84cac69d_blur.jpg,3.088264,1.21538,blurring,vamo24,2022-05-05_14h33.07.365,ratings,2022.1.1,Win32,60.13229104
-0.383895131,2.4685,1.507490637,3.3153,0,67,67,19,1,48_2cc936b2483ab2944c9158e163342b874ef6c1492fd8fca08c0e096e_bw.jpg,-1.264224,-0.779604,blackwhite,vamo24,2022-05-05_14h33.07.365,ratings,2022.1.1,Win32,60.13229104
-0.393258427,1.2897,-0.280898876,2.081,0,68,68,441,1,700_59cb565f134f1afd066d7b6d936c6511b7cb76de0e9cbb5ce15124ad_blur.jpg,0.0,0.0,blurring,vamo24,2022-05-05_14h33.07.365,ratings,2022.1.1,Win32,60.13229104
-0.411985019,1.2761,-0.43071161,1.9326,0,69,69,54,1,137_0e6a04243c0a42a5e2528a2d181255ca2a4b7bd6e7978c5c2059c69f_orig.jpg,-0.95238,2.095236,original,vamo24,2022-05-05_14h33.07.365,ratings,2022.1.1,Win32,60.13229104
-0.374531835,3.2393,0.767790262,3.8137,0,70,70,414,1,692_7d7eaf20e6de8956f0fca7500ace97a8599aa8b605a7d690cdb28724_orig.jpg,-2.063492,-1.26984,original,vamo24,2022-05-05_14h33.07.365,ratings,2022.1.1,Win32,60.13229104
0.58988764,1.1041,0.926966292,1.6623,0,71,71,178,1,368_6507b94d7d0199f14efd3706db30c9c44b96085f84e9cc7792e3e0ae_circblurint.jpg,1.959544,0.400336,circularblurringint,vamo24,2022-05-05_14h33.07.365,ratings,2022.1.1,Win32,60.13229104
1.43258427,1.198,1.282771536,1.7261,0,72,72,1,1,13_771f4fcf0a212d25d6a78565e7f34cc5ddd823e7afbdc77ef063326e_bw.jpg,2.190476,0.0,blackwhite,vamo24,2022-05-05_14h33.07.365,ratings,2022.1.1,Win32,60.13229104
1.282771536,3.8365,1.22659176,4.4037,0,73,73,186,1,369_c99797771115d7627d4abe3415f814497288f91a7be1a04c17c776b9_orig.jpg,3.619824,-0.174216,original,vamo24,2022-05-05_14h33.07.365,ratings,2022.1.1,Win32,60.13229104
0.608614232,3.2239,0.149812734,2.4399,0,74,74,293,1,442_7449d79dae5d652af9b2429872cabdef938646ba024db2f431b3b28d_circblurext.jpg,1.619048,0.126984,circularblurringext,vamo24,2022-05-05_14h33.07.365,ratings,2022.1.1,Win32,60.13229104
-0.009363296,1.6349,0.046816479,2.4425,0,75,75,3,1,13_771f4fcf0a212d25d6a78565e7f34cc5ddd823e7afbdc77ef063326e_blur.jpg,2.190476,0.0,blurring,vamo24,2022-05-05_14h33.07.365,ratings,2022.1.1,Win32,60.13229104
-0.43071161,5.2854,1.151685393,5.9166,0,76,76,589,1,1228_557412d34d6a70b7c5d222e030aa485b351a4574e8ba1a3112d1d13d_bw.jpg,2.137444,0.703464,blackwhite,vamo24,2022-05-05_14h33.07.365,ratings,2022.1.1,Win32,60.13229104
0.730337079,1.4706,1.104868914,1.9636,0,77,77,569,1,1037_e2eb929a6de79a63ce6cfe5321fcb74a203b134e4094932d90b01d99_circblurext.jpg,2.651956,0.0,circularblurringext,vamo24,2022-05-05_14h33.07.365,ratings,2022.1.1,Win32,60.13229104
-0.440074906,1.0933,-0.271535581,1.7248,0,78,78,510,1,858_2f6539ee36aba48c38dc716d4f7c3ae93367d6ddf23ab41745d4172c_orig.jpg,0.0623832,0.176752,original,vamo24,2022-05-05_14h33.07.365,ratings,2022.1.1,Win32,60.13229104
1.179775281,1.6085,0.393258427,3.4077,0,79,79,29,1,59_8568373b727f29d67ba6ce4c360dd918c8b08b13495fca56bdda5e82_circblurext.jpg,2.064896,0.505688,circularblurringext,vamo24,2022-05-05_14h33.07.365,ratings,2022.1.1,Win32,60.13229104
0.514981273,1.3546,-1.076779026,1.9919,0,80,80,82,1,242_85283f6935a89812ab229dcad9ba184529c9242ac3106d768ecf3ab3_circblurint.jpg,2.14918,-0.2949852,circularblurringint,vamo24,2022-05-05_14h33.07.365,ratings,2022.1.1,Win32,60.13229104
-1.189138577,2.2756,-0.655430712,1.6129,0,81,81,416,1,692_7d7eaf20e6de8956f0fca7500ace97a8599aa8b605a7d690cdb28724_edges.jpg,-2.063492,-1.26984,edges,vamo24,2022-05-05_14h33.07.365,ratings,2022.1.1,Win32,60.13229104
-2.331460674,2.2064,1.058052434,4.2856,0,82,82,539,1,986_a77edb21e78bc3a6aa7406517824596b3496ad6c657b6befb84cf370_circblurext.jpg,-3.906316,-0.60496,circularblurringext,vamo24,2022-05-05_14h33.07.365,ratings,2022.1.1,Win32,60.13229104
-0.440074906,2.5025,1.058052434,3.1023,0,83,83,487,1,818_877aae033c31e3bbca4486321a5307f87cf53c576c546462d3daf194_bw.jpg,-1.277584,0.619436,blackwhite,vamo24,2022-05-05_14h33.07.365,ratings,2022.1.1,Win32,60.13229104
-0.646067416,4.1942,0.842696629,3.3425,0,84,84,275,1,434_ba36d91204d7e578001f6a545d7501e65d209554def5a3c8b7583825_circblurext.jpg,-3.523808,1.428572,circularblurringext,vamo24,2022-05-05_14h33.07.365,ratings,2022.1.1,Win32,60.13229104
-0.31835206,1.1704,-0.383895131,1.848,0,85,85,278,1,440_9bf7e8609729bf888835168834da6c3ff30b75d0d4f36e2ee6918bcc_edges.jpg,-2.284164,2.710028,edges,vamo24,2022-05-05_14h33.07.365,ratings,2022.1.1,Win32,60.13229104
0.374531835,7.8991,0.262172285,8.78,0,86,86,584,1,1225_59c67a821456f2cce3e5acf66d7f00076bd02caffc984c1eb0df794e_edges.jpg,-0.444444,3.809524,edges,vamo24,2022-05-05_14h33.07.365,ratings,2022.1.1,Win32,60.13229104
2.02247191,1.2492,2.247191011,1.8165,0,87,87,36,1,82_43f4d5aec7c2e5bd495473f6708a0f2d47c9fe34e1fe9436646cb036_orig.jpg,2.022756,0.505688,original,vamo24,2022-05-05_14h33.07.365,ratings,2022.1.1,Win32,60.13229104
-0.421348315,1.7303,-0.449438202,2.3779,0,88,88,592,1,1228_557412d34d6a70b7c5d222e030aa485b351a4574e8ba1a3112d1d13d_circblurint.jpg,2.137444,0.703464,circularblurringint,vamo24,2022-05-05_14h33.07.365,ratings,2022.1.1,Win32,60.13229104
-0.486891386,1.1655,-0.421348315,1.8859,0,89,89,87,1,243_beddb302dcb21071d88c8d2cab07002050d36b3001ef28f89389fa56_blur.jpg,-0.3450656,-0.2070392,blurring,vamo24,2022-05-05_14h33.07.365,ratings,2022.1.1,Win32,60.13229104
-3.548689139,1.4201,1.947565543,3.1749,0,90,90,532,1,915_dc9fd40a3b5d64a180833a7bac86e7556c24f681f473fe255e41f936_circblurint.jpg,-3.09294,-0.918696,circularblurringint,vamo24,2022-05-05_14h33.07.365,ratings,2022.1.1,Win32,60.13229104
1.573033708,1.3375,1.582397004,2.5284,0,91,91,265,1,431_ab5a1dbbe9292ac7f74e276cdabcd372e2c1f852ff34bf7cc6646ef8_bw.jpg,3.102584,0.354334,blackwhite,vamo24,2022-05-05_14h33.07.365,ratings,2022.1.1,Win32,60.13229104
-0.374531835,1.4913,-0.486891386,2.0619,0,92,92,236,1,410_9633c4ff6e8888fcfca59a60ca86e9606d3e0736500a254101bdf295_edges.jpg,-0.3677892,2.981028,edges,vamo24,2022-05-05_14h33.07.365,ratings,2022.1.1,Win32,60.13229104
-0.308988764,1.247,-1.029962547,4.5823,0,93,93,235,1,410_9633c4ff6e8888fcfca59a60ca86e9606d3e0736500a254101bdf295_bw.jpg,-0.3677892,2.981028,blackwhite,vamo24,2022-05-05_14h33.07.365,ratings,2022.1.1,Win32,60.13229104
-0.440074906,1.4144,-0.383895131,2.0239,0,94,94,580,1,1061_665178b9cb0bc869cc2e2b68def4838db04e66f9531098fb75875a09_circblurint.jpg,0.3492064,-0.3174604,circularblurringint,vamo24,2022-05-05_14h33.07.365,ratings,2022.1.1,Win32,60.13229104
-0.449438202,1.1095,-0.383895131,1.8291,0,95,95,347,1,494_5c6c3b85a2734a43c24bfe337d42ffcc82b7347227804d01c784cef4_circblurext.jpg,0.03871468,0.0,circularblurringext,vamo24,2022-05-05_14h33.07.365,ratings,2022.1.1,Win32,60.13229104
1.27340824,2.7744,-0.936329588,3.391,0,96,96,6,1,28_6318543b74eeb646a1735477ebc023fdc9ac3849bc0db1957c272a26_orig.jpg,2.811244,-0.74584,original,vamo24,2022-05-05_14h33.07.365,ratings,2022.1.1,Win32,60.13229104
-0.393258427,1.1901,-0.252808989,1.7428,0,97,97,80,1,242_85283f6935a89812ab229dcad9ba184529c9242ac3106d768ecf3ab3_edges.jpg,2.14918,-0.2949852,edges,vamo24,2022-05-05_14h33.07.365,ratings,2022.1.1,Win32,60.13229104
-1.357677903,1.093,-0.43071161,1.6879,0,98,98,249,1,414_0187bdf7007109b487865b6a9d388997a6817acf052a6a7cdd5b39d9_blur.jpg,-2.786708,-1.133056,blurring,vamo24,2022-05-05_14h33.07.365,ratings,2022.1.1,Win32,60.13229104
0.777153558,1.2583,0.43071161,1.8569,0,99,99,24,1,59_8568373b727f29d67ba6ce4c360dd918c8b08b13495fca56bdda5e82_orig.jpg,2.064896,0.505688,original,vamo24,2022-05-05_14h33.07.365,ratings,2022.1.1,Win32,60.13229104
0.271535581,4.2426,-0.149812734,5.0025,0,100,100,298,1,449_9c1e990a3480e5b51430fe76b0188e69ba2468fd6a866b88b2d0dd75_circblurint.jpg,0.095238,0.03174604,circularblurringint,vamo24,2022-05-05_14h33.07.365,ratings,2022.1.1,Win32,60.13229104
1.011235955,1.2357,0.655430712,1.9075,0,101,101,483,1,759_95e1c46ed9a337414d5c8eada8fa8b9632e18751f5ce6ed587806e91_blur.jpg,2.126984,0.0,blurring,vamo24,2022-05-05_14h33.07.365,ratings,2022.1.1,Win32,60.13229104
-0.543071161,1.3501,-0.486891386,1.9496,0,102,102,436,1,694_f80f33613b268beffd6c044537cf3b44a84683d6e889bc37b8e9c34b_circblurint.jpg,-0.3785616,3.34728,circularblurringint,vamo24,2022-05-05_14h33.07.365,ratings,2022.1.1,Win32,60.13229104
-0.543071161,1.1978,-0.449438202,1.8712,0,103,103,326,1,468_8b69b13120daebadd8a4a3166e1419f2404395cba231307a4efa9fde_edges.jpg,2.031744,0.2539684,edges,vamo24,2022-05-05_14h33.07.365,ratings,2022.1.1,Win32,60.13229104
-0.458801498,6.2355,2.275280899,6.8108,0,104,104,403,1,686_6745b57686ad5d1bd6cf3e7ed5bc0243a154f8939e88e30321dfcfdb_bw.jpg,-1.523808,3.650792,blackwhite,vamo24,2022-05-05_14h33.07.365,ratings,2022.1.1,Win32,60.13229104
1.451310861,1.408,1.498127341,2.1283,0,105,105,546,1,1010_06d15f44b979c086561137000ec070ba4cd479856f92840a7850b2bf_orig.jpg,0.189786,-0.189786,original,vamo24,2022-05-05_14h33.07.365,ratings,2022.1.1,Win32,60.13229104
2.125468165,1.2034,2.387640449,1.7551,0,106,106,516,1,860_05c4e22518a30d3d2add458a8fc6488f87b9b02dd8e385ded939f025_orig.jpg,1.955092,0.3097172,original,vamo24,2022-05-05_14h33.07.365,ratings,2022.1.1,Win32,60.13229104
1.029962547,1.1474,0.917602996,1.8366,0,107,107,83,1,242_85283f6935a89812ab229dcad9ba184529c9242ac3106d768ecf3ab3_circblurext.jpg,2.14918,-0.2949852,circularblurringext,vamo24,2022-05-05_14h33.07.365,ratings,2022.1.1,Win32,60.13229104
-0.421348315,2.4753,-0.468164794,3.3232,0,108,108,562,1,1022_cf035e583d41a856836f8b0ae314ecbe79dffd9e40ef6a08cc26028f_circblurint.jpg,-0.2516452,3.05846,circularblurringint,vamo24,2022-05-05_14h33.07.365,ratings,2022.1.1,Win32,60.13229104
-0.299625468,1.0803,-0.449438202,1.6396,0,109,109,560,1,1022_cf035e583d41a856836f8b0ae314ecbe79dffd9e40ef6a08cc26028f_edges.jpg,-0.2516452,3.05846,edges,vamo24,2022-05-05_14h33.07.365,ratings,2022.1.1,Win32,60.13229104
-0.327715356,1.0367,-0.280898876,1.675,0,110,110,99,1,267_792043debad81ce271cec5b3c3bd9d264efc13f362bec9c7a3f72fe7_blur.jpg,1.980616,0.2107036,blurring,vamo24,2022-05-05_14h33.07.365,ratings,2022.1.1,Win32,60.13229104
1.189138577,2.2088,0.973782772,3.089,0,111,111,222,1,403_57ac47f43882fc031a6067b1a388c0b2cbe8708dcbd2ff1019932eff_orig.jpg,-3.333332,-1.396824,original,vamo24,2022-05-05_14h33.07.365,ratings,2022.1.1,Win32,60.13229104
-0.393258427,3.6321,0.046816479,4.4801,0,112,112,578,1,1061_665178b9cb0bc869cc2e2b68def4838db04e66f9531098fb75875a09_edges.jpg,0.3492064,-0.3174604,edges,vamo24,2022-05-05_14h33.07.365,ratings,2022.1.1,Win32,60.13229104
-2.584269663,1.3044,1.217228464,1.8138,0,113,113,247,1,414_0187bdf7007109b487865b6a9d388997a6817acf052a6a7cdd5b39d9_bw.jpg,-2.786708,-1.133056,blackwhite,vamo24,2022-05-05_14h33.07.365,ratings,2022.1.1,Win32,60.13229104
0.936329588,1.4964,0.608614232,2.0965,0,114,114,15,1,39_2fafccaa4dc69045a05845f59c6b3cd2edcf7e0e0c108b24e553afe0_blur.jpg,2.022756,0.463548,blurring,vamo24,2022-05-05_14h33.07.365,ratings,2022.1.1,Win32,60.13229104
0.449438202,2.8546,-0.402621723,1.821,0,115,115,226,1,403_57ac47f43882fc031a6067b1a388c0b2cbe8708dcbd2ff1019932eff_circblurint.jpg,-3.333332,-1.396824,circularblurringint,vamo24,2022-05-05_14h33.07.365,ratings,2022.1.1,Win32,60.13229104
-0.280898876,1.0913,-0.15917603,2.6591,0,116,116,393,1,663_aaf52107fe3a86392530d88b34e86f9d2b6820714cad98d1e3c2cb67_blur.jpg,2.58766,0.0918696,blurring,vamo24,2022-05-05_14h33.07.365,ratings,2022.1.1,Win32,60.13229104
2.790262172,1.5591,2.865168539,2.1422,0,117,117,49,1,112_b6a4ce721c2e42943d7d8b168751d74cd2f372b1cd4fed5a4404faec_bw.jpg,2.107036,0.505688,blackwhite,vamo24,2022-05-05_14h33.07.365,ratings,2022.1.1,Win32,60.13229104
-0.018726592,2.1212,-0.777153558,3.559,0,118,118,126,1,349_18d92ef5c21ca70a3dd237aad251594e1688bbe01d8cff37b89c46b8_orig.jpg,-2.74874,-1.258228,original,vamo24,2022-05-05_14h33.07.365,ratings,2022.1.1,Win32,60.13229104
0.646067416,1.2361,-1.38576779,1.7238,0,119,119,526,1,877_cab3efed0c9ff4552037df6c1ea4ea9713f915c94592a14dbf2799da_circblurint.jpg,3.174604,0.3174604,circularblurringint,vamo24,2022-05-05_14h33.07.365,ratings,2022.1.1,Win32,60.13229104
0.814606742,0.9758,-1.170411985,3.2169,0,120,120,462,1,736_bb85db1bcda8eb34299aa5791ac65a0a7c343266eb2d6e6e328ec0e1_orig.jpg,3.650792,-0.03174604,original,vamo24,2022-05-05_14h33.07.365,ratings,2022.1.1,Win32,60.13229104
0.514981273,1.371,-0.964419476,3.4419,0,121,121,470,1,741_2b218fb015e3da83db73cacdb52e61e0c2534c1fe255bb1c5c74d47f_edges.jpg,3.140096,0.448584,edges,vamo24,2022-05-05_14h33.07.365,ratings,2022.1.1,Win32,60.13229104
-0.355805243,1.2737,-0.365168539,1.8979,0,122,122,207,1,381_5935a9f9796adce2f1539af6c75bcdc0c80d847a2ce9b77cf59b7672_blur.jpg,-1.327432,-0.442476,blurring,vamo24,2022-05-05_14h33.07.365,ratings,2022.1.1,Win32,60.13229104
1.235955056,1.6383,1.320224719,2.1411,0,123,123,184,1,369_98db62a1bdabfd1bc551180da6658005b461585cd21614633cf76470_circblurint.jpg,2.190476,-0.03174604,circularblurringint,vamo24,2022-05-05_14h33.07.365,ratings,2022.1.1,Win32,60.13229104
-0.43071161,1.0555,-0.290262172,1.5901,0,124,124,302,1,453_54f106fd1d4b65fa4aa347407127fc30d49f791e81aee3a0bbe44489_edges.jpg,2.222224,0.0,edges,vamo24,2022-05-05_14h33.07.365,ratings,2022.1.1,Win32,60.13229104
2.116104869,1.3076,2.059925094,1.8678,0,125,125,175,1,368_6507b94d7d0199f14efd3706db30c9c44b96085f84e9cc7792e3e0ae_bw.jpg,1.959544,0.400336,blackwhite,vamo24,2022-05-05_14h33.07.365,ratings,2022.1.1,Win32,60.13229104
-2.855805243,1.722,0.486891386,3.0101,0,126,126,134,1,349_8809a67686d34844c915d7700e2ea72ad1c02ae232ae0d3cc0e458d4_edges.jpg,-3.619048,-0.2857144,edges,vamo24,2022-05-05_14h33.07.365,ratings,2022.1.1,Win32,60.13229104
-0.514981273,1.469,-0.215355805,2.0605,0,127,127,11,1,28_6318543b74eeb646a1735477ebc023fdc9ac3849bc0db1957c272a26_circblurext.jpg,2.811244,-0.74584,circularblurringext,vamo24,2022-05-05_14h33.07.365,ratings,2022.1.1,Win32,60.13229104
-0.486891386,2.3248,0.823970037,4.261,0,128,128,433,1,694_f80f33613b268beffd6c044537cf3b44a84683d6e889bc37b8e9c34b_bw.jpg,-0.3785616,3.34728,blackwhite,vamo24,2022-05-05_14h33.07.365,ratings,2022.1.1,Win32,60.13229104
0.767790262,1.6711,1.22659176,2.4581,0,129,129,182,1,369_98db62a1bdabfd1bc551180da6658005b461585cd21614633cf76470_edges.jpg,2.190476,-0.03174604,edges,vamo24,2022-05-05_14h33.07.365,ratings,2022.1.1,Win32,60.13229104
0.327715356,1.5456,0.084269663,2.1608,0,130,130,548,1,1010_06d15f44b979c086561137000ec070ba4cd479856f92840a7850b2bf_edges.jpg,0.189786,-0.189786,edges,vamo24,2022-05-05_14h33.07.365,ratings,2022.1.1,Win32,60.13229104
-0.617977528,1.4714,-0.271535581,2.0616,0,131,131,69,1,172_c641c6c56ca6b594b773084e1363c852abdb65f988d7ff802ee503f2_blur.jpg,0.379572,0.01725328,blurring,vamo24,2022-05-05_14h33.07.365,ratings,2022.1.1,Win32,60.13229104
0.365168539,1.4247,0.056179775,2.0995,0,132,132,112,1,293_3dfdfafc0c6a54b2da7453750ac281f7718c0b3337b0a74c4563d6bd_circblurint.jpg,-2.574524,2.632596,circularblurringint,vamo24,2022-05-05_14h33.07.365,ratings,2022.1.1,Win32,60.13229104
-0.449438202,1.3234,-0.393258427,1.9136,0,133,133,8,1,28_6318543b74eeb646a1735477ebc023fdc9ac3849bc0db1957c272a26_edges.jpg,2.811244,-0.74584,edges,vamo24,2022-05-05_14h33.07.365,ratings,2022.1.1,Win32,60.13229104
-0.514981273,1.3085,-0.514981273,2.0133,0,134,134,385,1,646_577760d718dab44c6f04d77408c5644a120065ce07a9503957d0850a_bw.jpg,-2.690668,2.61324,blackwhite,vamo24,2022-05-05_14h33.07.365,ratings,2022.1.1,Win32,60.13229104
-0.617977528,1.1066,-0.440074906,1.7293,0,135,135,63,1,156_08e8cf8f04630e9213e610580de73f51572d1d589878648700bae4dc_blur.jpg,2.222224,0.0,blurring,vamo24,2022-05-05_14h33.07.365,ratings,2022.1.1,Win32,60.13229104
0.9082397,1.2303,-0.177902622,1.7821,0,136,136,540,1,1005_b980c0747d20935bc63cc27a9e05ce2ff5bae98f859872ec48edd7f5_orig.jpg,3.428572,-0.476192,original,vamo24,2022-05-05_14h33.07.365,ratings,2022.1.1,Win32,60.13229104
-0.224719101,1.1562,-0.646067416,1.7555,0,137,137,413,1,687_e3b018945792a574962235c88c553b7c318c75eec2596478e8a7b877_circblurext.jpg,3.63918,-0.42586,circularblurringext,vamo24,2022-05-05_14h33.07.365,ratings,2022.1.1,Win32,60.13229104
-0.308988764,0.9806,-0.337078652,1.5564,0,138,138,509,1,855_66d893451dfd1e7615132071c6c8a82b02dc2b37781cd89400883b26_circblurext.jpg,2.69484,0.2143624,circularblurringext,vamo24,2022-05-05_14h33.07.365,ratings,2022.1.1,Win32,60.13229104
-0.355805243,1.0102,-0.299625468,1.5297,0,139,139,381,1,640_0ddb4981a5f5842ed5b4f7ef941be53779189df5e718b1fc5475ad80_blur.jpg,2.571428,-1.873016,blurring,vamo24,2022-05-05_14h33.07.365,ratings,2022.1.1,Win32,60.13229104
-0.683520599,5.619,1.27340824,6.1306,0,140,140,583,1,1225_59c67a821456f2cce3e5acf66d7f00076bd02caffc984c1eb0df794e_bw.jpg,-0.444444,3.809524,blackwhite,vamo24,2022-05-05_14h33.07.365,ratings,2022.1.1,Win32,60.13229104
0.327715356,1.1065,-1.020599251,2.0407,0,141,141,220,1,396_208259ea431d47bb7f3946213eb099834eb119756ce304ad473d4d9f_circblurint.jpg,2.857144,-0.3809524,circularblurringint,vamo24,2022-05-05_14h33.07.365,ratings,2022.1.1,Win32,60.13229104
-0.355805243,1.2746,-0.299625468,1.8497,0,142,142,258,1,416_8a1f874e0057d67a4e6955865ba88b2d8ce2c8b4469589307687a723_orig.jpg,-1.753336,3.088264,original,vamo24,2022-05-05_14h33.07.365,ratings,2022.1.1,Win32,60.13229104
-0.543071161,1.1052,-0.43071161,1.6411,0,143,143,211,1,394_8e3a0cb945144d53bd1ace04b6256237ed9dcbbd9cb83f8a4886b0e6_bw.jpg,-2.593884,2.651956,blackwhite,vamo24,2022-05-05_14h33.07.365,ratings,2022.1.1,Win32,60.13229104
-0.365168539,1.0946,-0.43071161,1.599,0,144,144,506,1,855_66d893451dfd1e7615132071c6c8a82b02dc2b37781cd89400883b26_edges.jpg,2.69484,0.2143624,edges,vamo24,2022-05-05_14h33.07.365,ratings,2022.1.1,Win32,60.13229104
-0.365168539,1.097,-0.47752809,1.6738,0,145,145,435,1,694_f80f33613b268beffd6c044537cf3b44a84683d6e889bc37b8e9c34b_blur.jpg,-0.3785616,3.34728,blurring,vamo24,2022-05-05_14h33.07.365,ratings,2022.1.1,Win32,60.13229104
-3.436329588,1.4711,1.75093633,1.9591,0,146,146,493,1,824_b1d91cc824ce0d3d383d3147da88d3d6dbaf6be918bab79e3ec8f501_bw.jpg,-3.645176,-1.432784,blackwhite,vamo24,2022-05-05_14h33.07.365,ratings,2022.1.1,Win32,60.13229104
-3.286516854,2.6445,1.245318352,4.0438,0,147,147,392,1,663_aaf52107fe3a86392530d88b34e86f9d2b6820714cad98d1e3c2cb67_edges.jpg,2.58766,0.0918696,edges,vamo24,2022-05-05_14h33.07.365,ratings,2022.1.1,Win32,60.13229104
0.730337079,1.6468,0.374531835,2.6154,0,148,148,280,1,440_9bf7e8609729bf888835168834da6c3ff30b75d0d4f36e2ee6918bcc_circblurint.jpg,-2.284164,2.710028,circularblurringint,vamo24,2022-05-05_14h33.07.365,ratings,2022.1.1,Win32,60.13229104
-0.365168539,1.2296,-0.374531835,1.9439,0,149,149,380,1,640_0ddb4981a5f5842ed5b4f7ef941be53779189df5e718b1fc5475ad80_edges.jpg,2.571428,-1.873016,edges,vamo24,2022-05-05_14h33.07.365,ratings,2022.1.1,Win32,60.13229104
-0.514981273,1.1686,-0.271535581,2.0802,0,150,150,384,1,646_577760d718dab44c6f04d77408c5644a120065ce07a9503957d0850a_orig.jpg,-2.690668,2.61324,original,vamo24,2022-05-05_14h33.07.365,ratings,2022.1.1,Win32,60.13229104
-0.374531835,1.0255,-0.468164794,1.5382,0,151,151,573,1,1039_d64da8480fc6e94dcdc513237d600570ae0b9fe48795ac6a8b2d29a7_blur.jpg,-2.507936,-1.142856,blurring,vamo24,2022-05-05_14h33.07.365,ratings,2022.1.1,Win32,60.13229104
-0.496254682,1.4739,-0.449438202,2.2208,0,152,152,486,1,818_877aae033c31e3bbca4486321a5307f87cf53c576c546462d3daf194_orig.jpg,-1.277584,0.619436,original,vamo24,2022-05-05_14h33.07.365,ratings,2022.1.1,Win32,60.13229104
0.767790262,1.3726,0.683520599,1.9398,0,153,153,203,1,380_34772591c787182a37724027eac6948ebc9d4064f6a601d23b923b8e_circblurext.jpg,2.222224,-0.063492,circularblurringext,vamo24,2022-05-05_14h33.07.365,ratings,2022.1.1,Win32,60.13229104
-0.458801498,1.0575,-0.271535581,1.5864,0,154,154,474,1,748_e519892faa7c772a0afaf9eeff36cf0e411574027ab3d9aa4947a048_orig.jpg,-1.813112,3.307432,original,vamo24,2022-05-05_14h33.07.365,ratings,2022.1.1,Win32,60.13229104
0.683520599,2.2584,1.020599251,4.3598,0,155,155,274,1,434_ba36d91204d7e578001f6a545d7501e65d209554def5a3c8b7583825_circblurint.jpg,-3.523808,1.428572,circularblurringint,vamo24,2022-05-05_14h33.07.365,ratings,2022.1.1,Win32,60.13229104
-0.646067416,1.0248,-0.383895131,1.618,0,156,156,554,1,1014_a5c212ca979d482cf94c2db7697aba75620391a64b030ab7ad2bbecf_edges.jpg,-3.174604,-1.374372,edges,vamo24,2022-05-05_14h33.07.365,ratings,2022.1.1,Win32,60.13229104
-0.505617978,2.378,-0.627340824,3.6494,0,157,157,577,1,1061_665178b9cb0bc869cc2e2b68def4838db04e66f9531098fb75875a09_bw.jpg,0.3492064,-0.3174604,blackwhite,vamo24,2022-05-05_14h33.07.365,ratings,2022.1.1,Win32,60.13229104
0.046816479,2.2513,-0.290262172,2.9916,0,158,158,518,1,860_05c4e22518a30d3d2add458a8fc6488f87b9b02dd8e385ded939f025_edges.jpg,1.955092,0.3097172,edges,vamo24,2022-05-05_14h33.07.365,ratings,2022.1.1,Win32,60.13229104
-2.06928839,3.6291,0.533707865,4.5965,0,159,159,137,1,349_8809a67686d34844c915d7700e2ea72ad1c02ae232ae0d3cc0e458d4_circblurext.jpg,-3.619048,-0.2857144,circularblurringext,vamo24,2022-05-05_14h33.07.365,ratings,2022.1.1,Win32,60.13229104
0.898876404,1.2424,1.058052434,1.6983,0,160,160,521,1,860_05c4e22518a30d3d2add458a8fc6488f87b9b02dd8e385ded939f025_circblurext.jpg,1.955092,0.3097172,circularblurringext,vamo24,2022-05-05_14h33.07.365,ratings,2022.1.1,Win32,60.13229104
0.224719101,1.523,-0.018726592,2.2659,0,161,161,420,1,692_e3e3bf88684fbbcdb9849a4147f9e2fcd39b0f083554a829aca4e9fa_orig.jpg,-0.44522,3.135888,original,vamo24,2022-05-05_14h33.07.365,ratings,2022.1.1,Win32,60.13229104
1.488764045,1.1749,1.554307116,1.927,0,162,162,183,1,369_98db62a1bdabfd1bc551180da6658005b461585cd21614633cf76470_blur.jpg,2.190476,-0.03174604,blurring,vamo24,2022-05-05_14h33.07.365,ratings,2022.1.1,Win32,60.13229104
0.561797753,1.1041,0.786516854,1.6548,0,163,163,549,1,1010_06d15f44b979c086561137000ec070ba4cd479856f92840a7850b2bf_blur.jpg,0.189786,-0.189786,blurring,vamo24,2022-05-05_14h33.07.365,ratings,2022.1.1,Win32,60.13229104
-0.290262172,0.966,-0.383895131,1.5099,0,164,164,387,1,646_577760d718dab44c6f04d77408c5644a120065ce07a9503957d0850a_blur.jpg,-2.690668,2.61324,blurring,vamo24,2022-05-05_14h33.07.365,ratings,2022.1.1,Win32,60.13229104
0.739700375,1.3582,-0.926966292,3.3496,0,165,165,169,1,365_45a719cabbc9aa308c4fcb30d529489c6966ac4073874af84f665c61_bw.jpg,2.507936,-1.968252,blackwhite,vamo24,2022-05-05_14h33.07.365,ratings,2022.1.1,Win32,60.13229104
1.179775281,1.6335,0.936329588,2.2893,0,166,166,426,1,694_7a14b8ab7c564dcb0f628c4de7f6cb54e4c5f6601f774bf167641c37_orig.jpg,1.819588,0.116144,original,vamo24,2022-05-05_14h33.07.365,ratings,2022.1.1,Win32,60.13229104
1.11423221,1.174,0.936329588,1.8906,0,167,167,268,1,431_ab5a1dbbe9292ac7f74e276cdabcd372e2c1f852ff34bf7cc6646ef8_circblurint.jpg,3.102584,0.354334,circularblurringint,vamo24,2022-05-05_14h33.07.365,ratings,2022.1.1,Win32,60.13229104
0.102996255,1.0464,0.028089888,1.5826,0,168,168,173,1,365_45a719cabbc9aa308c4fcb30d529489c6966ac4073874af84f665c61_circblurext.jpg,2.507936,-1.968252,circularblurringext,vamo24,2022-05-05_14h33.07.365,ratings,2022.1.1,Win32,60.13229104
-0.514981273,1.06,-0.308988764,1.6754,0,169,169,213,1,394_8e3a0cb945144d53bd1ace04b6256237ed9dcbbd9cb83f8a4886b0e6_blur.jpg,-2.593884,2.651956,blurring,vamo24,2022-05-05_14h33.07.365,ratings,2022.1.1,Win32,60.13229104
-0.402621723,2.1223,-0.496254682,2.7134,0,170,170,7,1,28_6318543b74eeb646a1735477ebc023fdc9ac3849bc0db1957c272a26_bw.jpg,2.811244,-0.74584,blackwhite,vamo24,2022-05-05_14h33.07.365,ratings,2022.1.1,Win32,60.13229104
-3.670411985,2.377,2.397003745,3.7227,0,171,171,529,1,915_dc9fd40a3b5d64a180833a7bac86e7556c24f681f473fe255e41f936_bw.jpg,-3.09294,-0.918696,blackwhite,vamo24,2022-05-05_14h33.07.365,ratings,2022.1.1,Win32,60.13229104
0.852059925,3.1476,0.861423221,3.7886,0,172,172,327,1,468_8b69b13120daebadd8a4a3166e1419f2404395cba231307a4efa9fde_blur.jpg,2.031744,0.2539684,blurring,vamo24,2022-05-05_14h33.07.365,ratings,2022.1.1,Win32,60.13229104
0.683520599,1.3101,0.402621723,1.9008,0,173,173,200,1,380_34772591c787182a37724027eac6948ebc9d4064f6a601d23b923b8e_edges.jpg,2.222224,-0.063492,edges,vamo24,2022-05-05_14h33.07.365,ratings,2022.1.1,Win32,60.13229104
-0.674157303,1.475,-0.31835206,2.0927,0,174,174,363,1,508_a7a9519cdc7aad6844030f4e6cd96cffd1b9c49b71e20ea52789bda2_blur.jpg,-3.000388,-1.29694,blurring,vamo24,2022-05-05_14h33.07.365,ratings,2022.1.1,Win32,60.13229104
0.093632959,3.3257,-2.509363296,3.9819,0,175,175,295,1,449_9c1e990a3480e5b51430fe76b0188e69ba2468fd6a866b88b2d0dd75_bw.jpg,0.095238,0.03174604,blackwhite,vamo24,2022-05-05_14h33.07.365,ratings,2022.1.1,Win32,60.13229104
-0.655430712,1.1594,-1.825842697,2.9438,0,176,176,103,1,284_cdcbd54fc995081ac95c8b2c37a19cebb341f61a8eb268cee1623492_bw.jpg,-1.015872,2.095236,blackwhite,vamo24,2022-05-05_14h33.07.365,ratings,2022.1.1,Win32,60.13229104
0.486891386,1.3743,0.514981273,1.8302,0,177,177,467,1,736_bb85db1bcda8eb34299aa5791ac65a0a7c343266eb2d6e6e328ec0e1_circblurext.jpg,3.650792,-0.03174604,circularblurringext,vamo24,2022-05-05_14h33.07.365,ratings,2022.1.1,Win32,60.13229104
0.552434457,3.5266,0.533707865,4.3818,0,178,178,412,1,687_e3b018945792a574962235c88c553b7c318c75eec2596478e8a7b877_circblurint.jpg,3.63918,-0.42586,circularblurringint,vamo24,2022-05-05_14h33.07.365,ratings,2022.1.1,Win32,60.13229104
1.947565543,1.1712,2.097378277,1.8011,0,179,179,564,1,1037_e2eb929a6de79a63ce6cfe5321fcb74a203b134e4094932d90b01d99_orig.jpg,2.651956,0.0,original,vamo24,2022-05-05_14h33.07.365,ratings,2022.1.1,Win32,60.13229104
1.292134831,1.0919,1.441947566,1.6541,0,180,180,79,1,242_85283f6935a89812ab229dcad9ba184529c9242ac3106d768ecf3ab3_bw.jpg,2.14918,-0.2949852,blackwhite,vamo24,2022-05-05_14h33.07.365,ratings,2022.1.1,Win32,60.13229104
-0.215355805,1.029,-0.280898876,1.5648,0,181,181,320,1,460_e06b3af7ff2f2bfb5f9b6e3d5dc25b9aaa40b84823fac8fd934621bd_edges.jpg,-3.430992,-1.607468,edges,vamo24,2022-05-05_14h33.07.365,ratings,2022.1.1,Win32,60.13229104
-0.664794007,0.993,-0.205992509,1.5288,0,182,182,58,1,137_0e6a04243c0a42a5e2528a2d181255ca2a4b7bd6e7978c5c2059c69f_circblurint.jpg,-0.95238,2.095236,circularblurringint,vamo24,2022-05-05_14h33.07.365,ratings,2022.1.1,Win32,60.13229104
-0.496254682,1.004,-0.402621723,1.5214,0,183,183,596,1,1239_cee00457f4cfb76a407b12fd5ad714d440a4614c1e5467ee16caf618_edges.jpg,-0.03174604,0.190476,edges,vamo24,2022-05-05_14h33.07.365,ratings,2022.1.1,Win32,60.13229104
-0.505617978,1.1401,-0.440074906,1.6441,0,184,184,257,1,416_5eb54976bb41ce2a6d129ef985f792e716f010fb9b69b15f50f5d2db_circblurext.jpg,-2.58766,2.602972,circularblurringext,vamo24,2022-05-05_14h33.07.365,ratings,2022.1.1,Win32,60.13229104
-0.646067416,1.0577,-0.440074906,1.5861,0,185,185,237,1,410_9633c4ff6e8888fcfca59a60ca86e9606d3e0736500a254101bdf295_blur.jpg,-0.3677892,2.981028,blurring,vamo24,2022-05-05_14h33.07.365,ratings,2022.1.1,Win32,60.13229104
-0.421348315,0.9862,-0.524344569,1.5598,0,186,186,89,1,243_beddb302dcb21071d88c8d2cab07002050d36b3001ef28f89389fa56_circblurext.jpg,-0.3450656,-0.2070392,circularblurringext,vamo24,2022-05-05_14h33.07.365,ratings,2022.1.1,Win32,60.13229104
0.739700375,1.2303,0.327715356,1.7194,0,187,187,28,1,59_8568373b727f29d67ba6ce4c360dd918c8b08b13495fca56bdda5e82_circblurint.jpg,2.064896,0.505688,circularblurringint,vamo24,2022-05-05_14h33.07.365,ratings,2022.1.1,Win32,60.13229104
-0.299625468,0.9973,-0.533707865,1.8865,0,188,188,428,1,694_7a14b8ab7c564dcb0f628c4de7f6cb54e4c5f6601f774bf167641c37_edges.jpg,1.819588,0.116144,edges,vamo24,2022-05-05_14h33.07.365,ratings,2022.1.1,Win32,60.13229104
-0.440074906,0.9969,-0.308988764,1.6204,0,189,189,519,1,860_05c4e22518a30d3d2add458a8fc6488f87b9b02dd8e385ded939f025_blur.jpg,1.955092,0.3097172,blurring,vamo24,2022-05-05_14h33.07.365,ratings,2022.1.1,Win32,60.13229104
1.320224719,1.2919,1.460674157,1.8281,0,190,190,409,1,687_e3b018945792a574962235c88c553b7c318c75eec2596478e8a7b877_bw.jpg,3.63918,-0.42586,blackwhite,vamo24,2022-05-05_14h33.07.365,ratings,2022.1.1,Win32,60.13229104
-1.919475655,1.9711,1.413857678,2.4826,0,191,191,306,1,455_34a7d8167619d110206c369e3f7dce8a3f99db763a9d8e2b956501d3_orig.jpg,-2.526412,-0.3827896,original,vamo24,2022-05-05_14h33.07.365,ratings,2022.1.1,Win32,60.13229104
0.720973783,1.146,0.411985019,1.6574,0,192,192,289,1,442_7449d79dae5d652af9b2429872cabdef938646ba024db2f431b3b28d_bw.jpg,1.619048,0.126984,blackwhite,vamo24,2022-05-05_14h33.07.365,ratings,2022.1.1,Win32,60.13229104
-0.486891386,1.0332,-0.43071161,1.6089,0,193,193,113,1,293_3dfdfafc0c6a54b2da7453750ac281f7718c0b3337b0a74c4563d6bd_circblurext.jpg,-2.574524,2.632596,circularblurringext,vamo24,2022-05-05_14h33.07.365,ratings,2022.1.1,Win32,60.13229104
-0.383895131,1.0043,-0.421348315,1.5,0,194,194,351,1,498_305b74cdc4784d9d25e72724302e5402def70177ea31ae7e25fab66b_blur.jpg,3.04762,-0.444444,blurring,vamo24,2022-05-05_14h33.07.365,ratings,2022.1.1,Win32,60.13229104
-0.271535581,2.3538,-1.217228464,2.8639,0,195,195,442,1,700_59cb565f134f1afd066d7b6d936c6511b7cb76de0e9cbb5ce15124ad_circblurint.jpg,0.0,0.0,circularblurringint,vamo24,2022-05-05_14h33.07.365,ratings,2022.1.1,Win32,60.13229104
-0.440074906,0.9985,-0.187265918,1.5245,0,196,196,333,1,482_a1cd28915c5044c018195ab0fff10dcc95e385246b045a7cd4463ff7_blur.jpg,-3.361852,-1.555612,blurring,vamo24,2022-05-05_14h33.07.365,ratings,2022.1.1,Win32,60.13229104
1.207865169,1.9647,1.292134831,2.5399,0,197,197,72,1,236_f645730e1eb06155418c9a571329cc7fa320654fcaaedf1048b5cc11_orig.jpg,2.253968,0.0,original,vamo24,2022-05-05_14h33.07.365,ratings,2022.1.1,Win32,60.13229104
1.207865169,1.4481,1.629213483,3.4004,0,198,198,17,1,39_2fafccaa4dc69045a05845f59c6b3cd2edcf7e0e0c108b24e553afe0_circblurext.jpg,2.022756,0.463548,circularblurringext,vamo24,2022-05-05_14h33.07.365,ratings,2022.1.1,Win32,60.13229104
0.31835206,1.1564,0.486891386,1.6827,0,199,199,66,1,172_c641c6c56ca6b594b773084e1363c852abdb65f988d7ff802ee503f2_orig.jpg,0.379572,0.01725328,original,vamo24,2022-05-05_14h33.07.365,ratings,2022.1.1,Win32,60.13229104
-0.411985019,1.0038,-0.571161049,1.5637,0,200,200,563,1,1022_cf035e583d41a856836f8b0ae314ecbe79dffd9e40ef6a08cc26028f_circblurext.jpg,-0.2516452,3.05846,circularblurringext,vamo24,2022-05-05_14h33.07.365,ratings,2022.1.1,Win32,60.13229104
-0.524344569,1.0712,-0.234082397,1.6623,0,201,201,50,1,112_b6a4ce721c2e42943d7d8b168751d74cd2f372b1cd4fed5a4404faec_edges.jpg,2.107036,0.505688,edges,vamo24,2022-05-05_14h33.07.365,ratings,2022.1.1,Win32,60.13229104
-3.604868914,1.8803,2.677902622,3.1918,0,202,202,528,1,915_dc9fd40a3b5d64a180833a7bac86e7556c24f681f473fe255e41f936_orig.jpg,-3.09294,-0.918696,original,vamo24,2022-05-05_14h33.07.365,ratings,2022.1.1,Win32,60.13229104
1.22659176,1.2026,1.563670412,1.7918,0,203,203,264,1,431_ab5a1dbbe9292ac7f74e276cdabcd372e2c1f852ff34bf7cc6646ef8_orig.jpg,3.102584,0.354334,original,vamo24,2022-05-05_14h33.07.365,ratings,2022.1.1,Win32,60.13229104
-3.651685393,1.7335,2.518726592,3.2053,0,204,204,536,1,986_a77edb21e78bc3a6aa7406517824596b3496ad6c657b6befb84cf370_edges.jpg,-3.906316,-0.60496,edges,vamo24,2022-05-05_14h33.07.365,ratings,2022.1.1,Win32,60.13229104
-0.365168539,1.0095,-0.31835206,1.658,0,205,205,147,1,354_e46c3ec6fb00773f64f2bcd212385f253c389808fe724b7cf8611051_blur.jpg,2.018292,0.0,blurring,vamo24,2022-05-05_14h33.07.365,ratings,2022.1.1,Win32,60.13229104
2.481273408,1.0665,2.677902622,1.7131,0,206,206,444,1,709_69c01dcde028a2a1a913f1a2a5026ae1748484f75c89217a040c6791_orig.jpg,1.432444,-0.01935732,original,vamo24,2022-05-05_14h33.07.365,ratings,2022.1.1,Win32,60.13229104
-0.823970037,1.7566,0.290262172,3.8576,0,207,207,262,1,416_8a1f874e0057d67a4e6955865ba88b2d8ce2c8b4469589307687a723_circblurint.jpg,-1.753336,3.088264,circularblurringint,vamo24,2022-05-05_14h33.07.365,ratings,2022.1.1,Win32,60.13229104
-0.421348315,1.0903,-0.31835206,1.6748,0,208,208,542,1,1005_b980c0747d20935bc63cc27a9e05ce2ff5bae98f859872ec48edd7f5_edges.jpg,3.428572,-0.476192,edges,vamo24,2022-05-05_14h33.07.365,ratings,2022.1.1,Win32,60.13229104
-1.835205993,1.1996,0.009363296,2.4312,0,209,209,193,1,379_eeaa6d9bf5a4ef205dc48bc505cf3a7f24ea86e99af9b371e03602a7_bw.jpg,-0.3926308,2.88936,blackwhite,vamo24,2022-05-05_14h33.07.365,ratings,2022.1.1,Win32,60.13229104
-3.904494382,1.3549,2.462546816,1.8573,0,210,210,157,1,358_157f8ac929713531a15b1ecf115e7b659cb90e83d675251e368d165f_bw.jpg,-3.777776,-0.571428,blackwhite,vamo24,2022-05-05_14h33.07.365,ratings,2022.1.1,Win32,60.13229104
-0.552434457,1.0749,-0.449438202,1.7799,0,211,211,372,1,620_9674719009d75dcfeaed7f15932c43e1fd1af5e25d47b8aadd61efe2_orig.jpg,-0.561364,1.142084,original,vamo24,2022-05-05_14h33.07.365,ratings,2022.1.1,Win32,60.13229104
-1.235955056,1.5439,1.132958801,2.113,0,212,212,586,1,1225_59c67a821456f2cce3e5acf66d7f00076bd02caffc984c1eb0df794e_circblurint.jpg,-0.444444,3.809524,circularblurringint,vamo24,2022-05-05_14h33.07.365,ratings,2022.1.1,Win32,60.13229104
0.63670412,1.4043,0.655430712,1.9798,0,213,213,300,1,453_54f106fd1d4b65fa4aa347407127fc30d49f791e81aee3a0bbe44489_orig.jpg,2.222224,0.0,original,vamo24,2022-05-05_14h33.07.365,ratings,2022.1.1,Win32,60.13229104
-2.528089888,2.4393,0.880149813,9.6535,0,214,214,400,1,683_a004ad18331da968da5debdd15e1447dd7748750af0bc6c57b844200_circblurint.jpg,-2.91956,2.466524,circularblurringint,vamo24,2022-05-05_14h33.07.365,ratings,2022.1.1,Win32,60.13229104
-0.524344569,0.9997,-0.402621723,1.5756,0,215,215,561,1,1022_cf035e583d41a856836f8b0ae314ecbe79dffd9e40ef6a08cc26028f_blur.jpg,-0.2516452,3.05846,blurring,vamo24,2022-05-05_14h33.07.365,ratings,2022.1.1,Win32,60.13229104
0.945692884,1.1312,1.029962547,1.763,0,216,216,190,1,369_c99797771115d7627d4abe3415f814497288f91a7be1a04c17c776b9_circblurint.jpg,3.619824,-0.174216,circularblurringint,vamo24,2022-05-05_14h33.07.365,ratings,2022.1.1,Win32,60.13229104
-0.374531835,1.2471,-0.280898876,1.7989,0,217,217,205,1,381_5935a9f9796adce2f1539af6c75bcdc0c80d847a2ce9b77cf59b7672_bw.jpg,-1.327432,-0.442476,blackwhite,vamo24,2022-05-05_14h33.07.365,ratings,2022.1.1,Win32,60.13229104
1.282771536,1.6747,1.301498127,2.476,0,218,218,30,1,60_ad52063167538de24f94d7dfd04808cb94cf8f426c40871d2f126505_orig.jpg,2.158732,0.0,original,vamo24,2022-05-05_14h33.07.365,ratings,2022.1.1,Win32,60.13229104
1.619850187,1.0904,1.70411985,1.6424,0,219,219,472,1,741_2b218fb015e3da83db73cacdb52e61e0c2534c1fe255bb1c5c74d47f_circblurint.jpg,3.140096,0.448584,circularblurringint,vamo24,2022-05-05_14h33.07.365,ratings,2022.1.1,Win32,60.13229104
-0.514981273,1.1036,-0.533707865,1.6067,0,220,220,479,1,748_e519892faa7c772a0afaf9eeff36cf0e411574027ab3d9aa4947a048_circblurext.jpg,-1.813112,3.307432,circularblurringext,vamo24,2022-05-05_14h33.07.365,ratings,2022.1.1,Win32,60.13229104
-0.655430712,3.7239,2.584269663,4.2348,0,221,221,407,1,686_6745b57686ad5d1bd6cf3e7ed5bc0243a154f8939e88e30321dfcfdb_circblurext.jpg,-1.523808,3.650792,circularblurringext,vamo24,2022-05-05_14h33.07.365,ratings,2022.1.1,Win32,60.13229104
-3.829588015,1.3774,3.174157303,3.8801,0,222,222,241,1,411_adfd0d5782129756321ff671d0cfb712528504c66c863df11aabd1e7_bw.jpg,-3.392332,-1.369576,blackwhite,vamo24,2022-05-05_14h33.07.365,ratings,2022.1.1,Win32,60.13229104
-0.561797753,1.0047,-0.290262172,1.709,0,223,223,299,1,449_9c1e990a3480e5b51430fe76b0188e69ba2468fd6a866b88b2d0dd75_circblurext.jpg,0.095238,0.03174604,circularblurringext,vamo24,2022-05-05_14h33.07.365,ratings,2022.1.1,Win32,60.13229104
-3.717228464,1.2371,3.511235955,2.3307,0,224,224,496,1,824_b1d91cc824ce0d3d383d3147da88d3d6dbaf6be918bab79e3ec8f501_circblurint.jpg,-3.645176,-1.432784,circularblurringint,vamo24,2022-05-05_14h33.07.365,ratings,2022.1.1,Win32,60.13229104
1.22659176,1.2385,1.413857678,1.7474,0,225,225,118,1,332_4d584229bdae2e1782f77f0e953e528f13c3dfa79b4b94736c0310fa_circblurint.jpg,3.157348,0.483092,circularblurringint,vamo24,2022-05-05_14h33.07.365,ratings,2022.1.1,Win32,60.13229104
-0.524344569,1.0891,-0.571161049,2.329,0,226,226,106,1,284_cdcbd54fc995081ac95c8b2c37a19cebb341f61a8eb268cee1623492_circblurint.jpg,-1.015872,2.095236,circularblurringint,vamo24,2022-05-05_14h33.07.365,ratings,2022.1.1,Win32,60.13229104
-0.561797753,1.212,-0.402621723,1.7157,0,227,227,371,1,616_05a637f5281666f53d4e2ef69351485fc21d629b37ee2006b2076eb6_circblurext.jpg,-2.380952,-0.832364,circularblurringext,vamo24,2022-05-05_14h33.07.365,ratings,2022.1.1,Win32,60.13229104
2.921348315,1.1562,2.715355805,1.7238,0,228,228,52,1,112_b6a4ce721c2e42943d7d8b168751d74cd2f372b1cd4fed5a4404faec_circblurint.jpg,2.107036,0.505688,circularblurringint,vamo24,2022-05-05_14h33.07.365,ratings,2022.1.1,Win32,60.13229104
-0.365168539,1.2002,-0.608614232,1.7877,0,229,229,557,1,1014_a5c212ca979d482cf94c2db7697aba75620391a64b030ab7ad2bbecf_circblurext.jpg,-3.174604,-1.374372,circularblurringext,vamo24,2022-05-05_14h33.07.365,ratings,2022.1.1,Win32,60.13229104
1.048689139,1.0619,1.376404494,1.6547,0,230,230,349,1,498_305b74cdc4784d9d25e72724302e5402def70177ea31ae7e25fab66b_bw.jpg,3.04762,-0.444444,blackwhite,vamo24,2022-05-05_14h33.07.365,ratings,2022.1.1,Win32,60.13229104
0.337078652,4.1428,0.028089888,5.7986,0,231,231,45,1,92_5d20d78a8e57e628c6930676473a4e0a485e715841efd6286c660020_blur.jpg,2.126984,0.0,blurring,vamo24,2022-05-05_14h33.07.365,ratings,2022.1.1,Win32,60.13229104
1.638576779,1.203,1.619850187,1.7693,0,232,232,25,1,59_8568373b727f29d67ba6ce4c360dd918c8b08b13495fca56bdda5e82_bw.jpg,2.064896,0.505688,blackwhite,vamo24,2022-05-05_14h33.07.365,ratings,2022.1.1,Win32,60.13229104
-0.262172285,1.1198,-0.121722846,1.6621,0,233,233,350,1,498_305b74cdc4784d9d25e72724302e5402def70177ea31ae7e25fab66b_edges.jpg,3.04762,-0.444444,edges,vamo24,2022-05-05_14h33.07.365,ratings,2022.1.1,Win32,60.13229104
1.151685393,1.0569,1.161048689,1.609,0,234,234,449,1,709_69c01dcde028a2a1a913f1a2a5026ae1748484f75c89217a040c6791_circblurext.jpg,1.432444,-0.01935732,circularblurringext,vamo24,2022-05-05_14h33.07.365,ratings,2022.1.1,Win32,60.13229104
-0.383895131,1.7729,-0.31835206,2.2696,0,235,235,59,1,137_0e6a04243c0a42a5e2528a2d181255ca2a4b7bd6e7978c5c2059c69f_circblurext.jpg,-0.95238,2.095236,circularblurringext,vamo24,2022-05-05_14h33.07.365,ratings,2022.1.1,Win32,60.13229104
0.524344569,1.0404,-0.365168539,2.3762,0,236,236,38,1,82_43f4d5aec7c2e5bd495473f6708a0f2d47c9fe34e1fe9436646cb036_edges.jpg,2.022756,0.505688,edges,vamo24,2022-05-05_14h33.07.365,ratings,2022.1.1,Win32,60.13229104
1.011235955,3.4813,-0.889513109,3.9305,0,237,237,411,1,687_e3b018945792a574962235c88c553b7c318c75eec2596478e8a7b877_blur.jpg,3.63918,-0.42586,blurring,vamo24,2022-05-05_14h33.07.365,ratings,2022.1.1,Win32,60.13229104
-0.056179775,1.0855,-0.411985019,1.853,0,238,238,353,1,498_305b74cdc4784d9d25e72724302e5402def70177ea31ae7e25fab66b_circblurext.jpg,3.04762,-0.444444,circularblurringext,vamo24,2022-05-05_14h33.07.365,ratings,2022.1.1,Win32,60.13229104
0.646067416,0.9644,0.31835206,1.5963,0,239,239,164,1,361_b5541309527dc3c2422f45a95ebb0ed32005e6fe10d0489a1ff1fbdc_edges.jpg,-3.987612,-0.2516452,edges,vamo24,2022-05-05_14h33.07.365,ratings,2022.1.1,Win32,60.13229104
1.338951311,1.0364,1.245318352,1.5344,0,240,240,390,1,663_aaf52107fe3a86392530d88b34e86f9d2b6820714cad98d1e3c2cb67_orig.jpg,2.58766,0.0918696,original,vamo24,2022-05-05_14h33.07.365,ratings,2022.1.1,Win32,60.13229104
0.833333333,1.0476,0.346441948,1.7911,0,241,241,231,1,407_578d31d32e806706dde2563213f130b90e621abfed0e47ecabd85d27_blur.jpg,3.5873,-0.444444,blurring,vamo24,2022-05-05_14h33.07.365,ratings,2022.1.1,Win32,60.13229104
0.458801498,0.8412,0.43071161,1.3926,0,242,242,215,1,394_8e3a0cb945144d53bd1ace04b6256237ed9dcbbd9cb83f8a4886b0e6_circblurext.jpg,-2.593884,2.651956,circularblurringext,vamo24,2022-05-05_14h33.07.365,ratings,2022.1.1,Win32,60.13229104
-0.552434457,1.1274,-0.486891386,2.3103,0,243,243,253,1,416_5eb54976bb41ce2a6d129ef985f792e716f010fb9b69b15f50f5d2db_bw.jpg,-2.58766,2.602972,blackwhite,vamo24,2022-05-05_14h33.07.365,ratings,2022.1.1,Win32,60.13229104
-3.492509363,1.6098,3.155430712,2.259,0,244,244,322,1,460_e06b3af7ff2f2bfb5f9b6e3d5dc25b9aaa40b84823fac8fd934621bd_circblurint.jpg,-3.430992,-1.607468,circularblurringint,vamo24,2022-05-05_14h33.07.365,ratings,2022.1.1,Win32,60.13229104
2.593632959,1.1126,2.593632959,1.5901,0,245,245,229,1,407_578d31d32e806706dde2563213f130b90e621abfed0e47ecabd85d27_bw.jpg,3.5873,-0.444444,blackwhite,vamo24,2022-05-05_14h33.07.365,ratings,2022.1.1,Win32,60.13229104
2.116104869,1.045,2.509363296,1.6387,0,246,246,35,1,60_ad52063167538de24f94d7dfd04808cb94cf8f426c40871d2f126505_circblurext.jpg,2.158732,0.0,circularblurringext,vamo24,2022-05-05_14h33.07.365,ratings,2022.1.1,Win32,60.13229104
0.79588015,0.9922,0.571161049,1.706,0,247,247,219,1,396_208259ea431d47bb7f3946213eb099834eb119756ce304ad473d4d9f_blur.jpg,2.857144,-0.3809524,blurring,vamo24,2022-05-05_14h33.07.365,ratings,2022.1.1,Win32,60.13229104
2.050561798,2.7676,2.387640449,3.6316,0,248,248,42,1,92_5d20d78a8e57e628c6930676473a4e0a485e715841efd6286c660020_orig.jpg,2.126984,0.0,original,vamo24,2022-05-05_14h33.07.365,ratings,2022.1.1,Win32,60.13229104
2.228464419,1.1209,2.312734082,1.7046,0,249,249,341,1,492_a1a4d288d3bc486c83c3b6a835c42891989f5ba781633932298a7676_circblurext.jpg,3.406892,-0.44522,circularblurringext,vamo24,2022-05-05_14h33.07.365,ratings,2022.1.1,Win32,60.13229104
0.608614232,1.3917,-1.235955056,1.9088,0,250,250,508,1,855_66d893451dfd1e7615132071c6c8a82b02dc2b37781cd89400883b26_circblurint.jpg,2.69484,0.2143624,circularblurringint,vamo24,2022-05-05_14h33.07.365,ratings,2022.1.1,Win32,60.13229104
1.451310861,1.1975,0.674157303,2.0365,0,251,251,16,1,39_2fafccaa4dc69045a05845f59c6b3cd2edcf7e0e0c108b24e553afe0_circblurint.jpg,2.022756,0.463548,circularblurringint,vamo24,2022-05-05_14h33.07.365,ratings,2022.1.1,Win32,60.13229104
-1.264044944,3.4328,0.543071161,4.0468,0,252,252,166,1,361_b5541309527dc3c2422f45a95ebb0ed32005e6fe10d0489a1ff1fbdc_circblurint.jpg,-3.987612,-0.2516452,circularblurringint,vamo24,2022-05-05_14h33.07.365,ratings,2022.1.1,Win32,60.13229104
-0.449438202,1.0093,-0.421348315,1.5531,0,253,253,153,1,355_00a76f54934d36566dd0e7b091b8aa6a56d8e6b32d349aa578a10b45_blur.jpg,2.910052,0.3439152,blurring,vamo24,2022-05-05_14h33.07.365,ratings,2022.1.1,Win32,60.13229104
-0.149812734,1.7842,0.102996255,2.3762,0,254,254,328,1,468_8b69b13120daebadd8a4a3166e1419f2404395cba231307a4efa9fde_circblurint.jpg,2.031744,0.2539684,circularblurringint,vamo24,2022-05-05_14h33.07.365,ratings,2022.1.1,Win32,60.13229104
-0.365168539,1.2269,0.524344569,2.2984,0,255,255,432,1,694_f80f33613b268beffd6c044537cf3b44a84683d6e889bc37b8e9c34b_orig.jpg,-0.3785616,3.34728,original,vamo24,2022-05-05_14h33.07.365,ratings,2022.1.1,Win32,60.13229104
0.786516854,1.8575,0.739700375,2.4413,0,256,256,217,1,396_208259ea431d47bb7f3946213eb099834eb119756ce304ad473d4d9f_bw.jpg,2.857144,-0.3809524,blackwhite,vamo24,2022-05-05_14h33.07.365,ratings,2022.1.1,Win32,60.13229104
-0.383895131,1.4165,-0.47752809,2.753,0,257,257,425,1,692_e3e3bf88684fbbcdb9849a4147f9e2fcd39b0f083554a829aca4e9fa_circblurext.jpg,-0.44522,3.135888,circularblurringext,vamo24,2022-05-05_14h33.07.365,ratings,2022.1.1,Win32,60.13229104
-0.458801498,1.0485,-0.327715356,1.641,0,258,258,443,1,700_59cb565f134f1afd066d7b6d936c6511b7cb76de0e9cbb5ce15124ad_circblurext.jpg,0.0,0.0,circularblurringext,vamo24,2022-05-05_14h33.07.365,ratings,2022.1.1,Win32,60.13229104
-0.009363296,1.0571,-0.271535581,1.604,0,259,259,292,1,442_7449d79dae5d652af9b2429872cabdef938646ba024db2f431b3b28d_circblurint.jpg,1.619048,0.126984,circularblurringint,vamo24,2022-05-05_14h33.07.365,ratings,2022.1.1,Win32,60.13229104
-0.177902622,1.4039,-0.346441948,2.0498,0,260,260,515,1,858_2f6539ee36aba48c38dc716d4f7c3ae93367d6ddf23ab41745d4172c_circblurext.jpg,0.0623832,0.176752,circularblurringext,vamo24,2022-05-05_14h33.07.365,ratings,2022.1.1,Win32,60.13229104
-0.299625468,1.2591,-0.47752809,1.8431,0,261,261,559,1,1022_cf035e583d41a856836f8b0ae314ecbe79dffd9e40ef6a08cc26028f_bw.jpg,-0.2516452,3.05846,blackwhite,vamo24,2022-05-05_14h33.07.365,ratings,2022.1.1,Win32,60.13229104
-0.290262172,1.0088,-0.262172285,1.5361,0,262,262,597,1,1239_cee00457f4cfb76a407b12fd5ad714d440a4614c1e5467ee16caf618_blur.jpg,-0.03174604,0.190476,blurring,vamo24,2022-05-05_14h33.07.365,ratings,2022.1.1,Win32,60.13229104
-0.402621723,0.9907,-0.374531835,1.526,0,263,263,419,1,692_7d7eaf20e6de8956f0fca7500ace97a8599aa8b605a7d690cdb28724_circblurext.jpg,-2.063492,-1.26984,circularblurringext,vamo24,2022-05-05_14h33.07.365,ratings,2022.1.1,Win32,60.13229104
-0.486891386,1.4533,-0.355805243,2.3728,0,264,264,440,1,700_59cb565f134f1afd066d7b6d936c6511b7cb76de0e9cbb5ce15124ad_edges.jpg,0.0,0.0,edges,vamo24,2022-05-05_14h33.07.365,ratings,2022.1.1,Win32,60.13229104
1.38576779,1.321,1.488764045,1.9346,0,265,265,277,1,440_9bf7e8609729bf888835168834da6c3ff30b75d0d4f36e2ee6918bcc_bw.jpg,-2.284164,2.710028,blackwhite,vamo24,2022-05-05_14h33.07.365,ratings,2022.1.1,Win32,60.13229104
-0.271535581,0.9917,-0.486891386,1.5206,0,266,266,65,1,156_08e8cf8f04630e9213e610580de73f51572d1d589878648700bae4dc_circblurext.jpg,2.222224,0.0,circularblurringext,vamo24,2022-05-05_14h33.07.365,ratings,2022.1.1,Win32,60.13229104
0.102996255,2.0259,-0.028089888,2.761,0,267,267,290,1,442_7449d79dae5d652af9b2429872cabdef938646ba024db2f431b3b28d_edges.jpg,1.619048,0.126984,edges,vamo24,2022-05-05_14h33.07.365,ratings,2022.1.1,Win32,60.13229104
-3.511235955,1.3689,2.584269663,2.0863,0,268,268,244,1,411_adfd0d5782129756321ff671d0cfb712528504c66c863df11aabd1e7_circblurint.jpg,-3.392332,-1.369576,circularblurringint,vamo24,2022-05-05_14h33.07.365,ratings,2022.1.1,Win32,60.13229104
0.786516854,2.477,-0.823970037,3.6133,0,269,269,90,1,258_d26019382777d2159a974a7654923e71598135ce2cd710cea1f92865_orig.jpg,3.497684,-0.61104,original,vamo24,2022-05-05_14h33.07.365,ratings,2022.1.1,Win32,60.13229104
-0.346441948,1.2273,-0.486891386,1.7084,0,270,270,572,1,1039_d64da8480fc6e94dcdc513237d600570ae0b9fe48795ac6a8b2d29a7_edges.jpg,-2.507936,-1.142856,edges,vamo24,2022-05-05_14h33.07.365,ratings,2022.1.1,Win32,60.13229104
-0.514981273,1.0905,-0.486891386,1.624,0,271,271,143,1,353_44e285740cb41818482ac93fc5fbd72c18029444a1d7506c9fc053e7_circblurext.jpg,-3.232676,-0.87108,circularblurringext,vamo24,2022-05-05_14h33.07.365,ratings,2022.1.1,Win32,60.13229104
-0.383895131,1.0085,-0.47752809,1.4328,0,272,272,399,1,683_a004ad18331da968da5debdd15e1447dd7748750af0bc6c57b844200_blur.jpg,-2.91956,2.466524,blurring,vamo24,2022-05-05_14h33.07.365,ratings,2022.1.1,Win32,60.13229104
-0.505617978,1.136,-0.402621723,1.7344,0,273,273,129,1,349_18d92ef5c21ca70a3dd237aad251594e1688bbe01d8cff37b89c46b8_blur.jpg,-2.74874,-1.258228,blurring,vamo24,2022-05-05_14h33.07.365,ratings,2022.1.1,Win32,60.13229104
-0.47752809,1.2841,-0.402621723,1.8839,0,274,274,386,1,646_577760d718dab44c6f04d77408c5644a120065ce07a9503957d0850a_edges.jpg,-2.690668,2.61324,edges,vamo24,2022-05-05_14h33.07.365,ratings,2022.1.1,Win32,60.13229104
0.543071161,2.1835,0.440074906,2.7835,0,275,275,522,1,877_cab3efed0c9ff4552037df6c1ea4ea9713f915c94592a14dbf2799da_orig.jpg,3.174604,0.3174604,original,vamo24,2022-05-05_14h33.07.365,ratings,2022.1.1,Win32,60.13229104
-0.617977528,0.908,-0.355805243,1.4747,0,276,276,476,1,748_e519892faa7c772a0afaf9eeff36cf0e411574027ab3d9aa4947a048_edges.jpg,-1.813112,3.307432,edges,vamo24,2022-05-05_14h33.07.365,ratings,2022.1.1,Win32,60.13229104
-0.402621723,6.6715,-1.86329588,8.0481,0,277,277,552,1,1014_a5c212ca979d482cf94c2db7697aba75620391a64b030ab7ad2bbecf_orig.jpg,-3.174604,-1.374372,original,vamo24,2022-05-05_14h33.07.365,ratings,2022.1.1,Win32,60.13229104
-1.91011236,2.4593,0.271535581,3.01,0,278,278,574,1,1039_d64da8480fc6e94dcdc513237d600570ae0b9fe48795ac6a8b2d29a7_circblurint.jpg,-2.507936,-1.142856,circularblurringint,vamo24,2022-05-05_14h33.07.365,ratings,2022.1.1,Win32,60.13229104
-0.337078652,1.5958,-0.608614232,2.1801,0,279,279,92,1,258_d26019382777d2159a974a7654923e71598135ce2cd710cea1f92865_edges.jpg,3.497684,-0.61104,edges,vamo24,2022-05-05_14h33.07.365,ratings,2022.1.1,Win32,60.13229104
-3.417602996,1.3569,1.470037453,1.9253,0,280,280,354,1,500_3b520c7f352afa1a9f8c07e56cc0588cdc04d25ff6e7b602b5e280cb_orig.jpg,-0.8328,3.11766,original,vamo24,2022-05-05_14h33.07.365,ratings,2022.1.1,Win32,60.13229104
-0.449438202,1.1076,-1.647940075,2.6261,0,281,281,438,1,700_59cb565f134f1afd066d7b6d936c6511b7cb76de0e9cbb5ce15124ad_orig.jpg,0.0,0.0,original,vamo24,2022-05-05_14h33.07.365,ratings,2022.1.1,Win32,60.13229104
0.552434457,0.9949,0.683520599,1.4898,0,282,282,288,1,442_7449d79dae5d652af9b2429872cabdef938646ba024db2f431b3b28d_orig.jpg,1.619048,0.126984,original,vamo24,2022-05-05_14h33.07.365,ratings,2022.1.1,Win32,60.13229104
0.177902622,1.0247,-1.179775281,2.3935,0,283,283,544,1,1005_b980c0747d20935bc63cc27a9e05ce2ff5bae98f859872ec48edd7f5_circblurint.jpg,3.428572,-0.476192,circularblurringint,vamo24,2022-05-05_14h33.07.365,ratings,2022.1.1,Win32,60.13229104
-0.524344569,1.4068,-0.468164794,2.4289,0,284,284,368,1,616_05a637f5281666f53d4e2ef69351485fc21d629b37ee2006b2076eb6_edges.jpg,-2.380952,-0.832364,edges,vamo24,2022-05-05_14h33.07.365,ratings,2022.1.1,Win32,60.13229104
0.646067416,1.3989,0.945692884,1.9735,0,285,285,177,1,368_6507b94d7d0199f14efd3706db30c9c44b96085f84e9cc7792e3e0ae_blur.jpg,1.959544,0.400336,blurring,vamo24,2022-05-05_14h33.07.365,ratings,2022.1.1,Win32,60.13229104
-0.571161049,1.4608,-0.468164794,2.2999,0,286,286,344,1,494_5c6c3b85a2734a43c24bfe337d42ffcc82b7347227804d01c784cef4_edges.jpg,0.03871468,0.0,edges,vamo24,2022-05-05_14h33.07.365,ratings,2022.1.1,Win32,60.13229104
-0.421348315,1.4062,-0.393258427,1.8735,0,287,287,346,1,494_5c6c3b85a2734a43c24bfe337d42ffcc82b7347227804d01c784cef4_circblurint.jpg,0.03871468,0.0,circularblurringint,vamo24,2022-05-05_14h33.07.365,ratings,2022.1.1,Win32,60.13229104
-0.440074906,1.0234,-0.346441948,1.5641,0,288,288,263,1,416_8a1f874e0057d67a4e6955865ba88b2d8ce2c8b4469589307687a723_circblurext.jpg,-1.753336,3.088264,circularblurringext,vamo24,2022-05-05_14h33.07.365,ratings,2022.1.1,Win32,60.13229104
-3.501872659,1.2817,3.61423221,1.8918,0,289,289,535,1,986_a77edb21e78bc3a6aa7406517824596b3496ad6c657b6befb84cf370_bw.jpg,-3.906316,-0.60496,blackwhite,vamo24,2022-05-05_14h33.07.365,ratings,2022.1.1,Win32,60.13229104
-0.514981273,1.5088,-0.308988764,2.0266,0,290,290,345,1,494_5c6c3b85a2734a43c24bfe337d42ffcc82b7347227804d01c784cef4_blur.jpg,0.03871468,0.0,blurring,vamo24,2022-05-05_14h33.07.365,ratings,2022.1.1,Win32,60.13229104
-2.172284644,2.9829,1.722846442,3.5825,0,291,291,359,1,500_3b520c7f352afa1a9f8c07e56cc0588cdc04d25ff6e7b602b5e280cb_circblurext.jpg,-0.8328,3.11766,circularblurringext,vamo24,2022-05-05_14h33.07.365,ratings,2022.1.1,Win32,60.13229104
-0.440074906,1.6434,-0.327715356,2.2426,0,292,292,369,1,616_05a637f5281666f53d4e2ef69351485fc21d629b37ee2006b2076eb6_blur.jpg,-2.380952,-0.832364,blurring,vamo24,2022-05-05_14h33.07.365,ratings,2022.1.1,Win32,60.13229104
-0.374531835,1.1471,-0.365168539,1.6402,0,293,293,218,1,396_208259ea431d47bb7f3946213eb099834eb119756ce304ad473d4d9f_edges.jpg,2.857144,-0.3809524,edges,vamo24,2022-05-05_14h33.07.365,ratings,2022.1.1,Win32,60.13229104
1.06741573,1.3717,1.06741573,1.9778,0,294,294,547,1,1010_06d15f44b979c086561137000ec070ba4cd479856f92840a7850b2bf_bw.jpg,0.189786,-0.189786,blackwhite,vamo24,2022-05-05_14h33.07.365,ratings,2022.1.1,Win32,60.13229104
1.516853933,1.8428,1.451310861,3.3938,0,295,295,34,1,60_ad52063167538de24f94d7dfd04808cb94cf8f426c40871d2f126505_circblurint.jpg,2.158732,0.0,circularblurringint,vamo24,2022-05-05_14h33.07.365,ratings,2022.1.1,Win32,60.13229104
-0.514981273,0.9748,-0.243445693,1.4785,0,296,296,599,1,1239_cee00457f4cfb76a407b12fd5ad714d440a4614c1e5467ee16caf618_circblurext.jpg,-0.03174604,0.190476,circularblurringext,vamo24,2022-05-05_14h33.07.365,ratings,2022.1.1,Win32,60.13229104
0.440074906,4.5115,1.413857678,5.7125,0,297,297,582,1,1225_59c67a821456f2cce3e5acf66d7f00076bd02caffc984c1eb0df794e_orig.jpg,-0.444444,3.809524,original,vamo24,2022-05-05_14h33.07.365,ratings,2022.1.1,Win32,60.13229104
0.093632959,1.1583,-1.320224719,1.8929,0,298,298,145,1,354_e46c3ec6fb00773f64f2bcd212385f253c389808fe724b7cf8611051_bw.jpg,2.018292,0.0,blackwhite,vamo24,2022-05-05_14h33.07.365,ratings,2022.1.1,Win32,60.13229104
-0.308988764,1.1415,1.029962547,2.5267,0,299,299,313,1,459_46e25de472bb056cb470716d30937415f7344bfc4354d6eb710d8c9f_bw.jpg,0.03174604,0.0,blackwhite,vamo24,2022-05-05_14h33.07.365,ratings,2022.1.1,Win32,60.13229104
0.552434457,0.9631,0.758426966,1.7756,0,300,300,408,1,687_e3b018945792a574962235c88c553b7c318c75eec2596478e8a7b877_orig.jpg,3.63918,-0.42586,original,vamo24,2022-05-05_14h33.07.365,ratings,2022.1.1,Win32,60.13229104
-0.533707865,1.1084,-0.617977528,1.6298,0,301,301,170,1,365_45a719cabbc9aa308c4fcb30d529489c6966ac4073874af84f665c61_edges.jpg,2.507936,-1.968252,edges,vamo24,2022-05-05_14h33.07.365,ratings,2022.1.1,Win32,60.13229104
0.271535581,1.3152,0.112359551,1.9949,0,302,302,304,1,453_54f106fd1d4b65fa4aa347407127fc30d49f791e81aee3a0bbe44489_circblurint.jpg,2.222224,0.0,circularblurringint,vamo24,2022-05-05_14h33.07.365,ratings,2022.1.1,Win32,60.13229104
0.739700375,2.4675,-1.076779026,3.1934,0,303,303,430,1,694_7a14b8ab7c564dcb0f628c4de7f6cb54e4c5f6601f774bf167641c37_circblurint.jpg,1.819588,0.116144,circularblurringint,vamo24,2022-05-05_14h33.07.365,ratings,2022.1.1,Win32,60.13229104
-0.449438202,0.9652,-0.402621723,1.5488,0,304,304,141,1,353_44e285740cb41818482ac93fc5fbd72c18029444a1d7506c9fc053e7_blur.jpg,-3.232676,-0.87108,blurring,vamo24,2022-05-05_14h33.07.365,ratings,2022.1.1,Win32,60.13229104
1.470037453,1.1404,1.563670412,1.6746,0,305,305,517,1,860_05c4e22518a30d3d2add458a8fc6488f87b9b02dd8e385ded939f025_bw.jpg,1.955092,0.3097172,blackwhite,vamo24,2022-05-05_14h33.07.365,ratings,2022.1.1,Win32,60.13229104
1.769662921,1.1735,1.554307116,1.7243,0,306,306,541,1,1005_b980c0747d20935bc63cc27a9e05ce2ff5bae98f859872ec48edd7f5_bw.jpg,3.428572,-0.476192,blackwhite,vamo24,2022-05-05_14h33.07.365,ratings,2022.1.1,Win32,60.13229104
-0.337078652,0.9904,-0.365168539,1.5737,0,307,307,206,1,381_5935a9f9796adce2f1539af6c75bcdc0c80d847a2ce9b77cf59b7672_edges.jpg,-1.327432,-0.442476,edges,vamo24,2022-05-05_14h33.07.365,ratings,2022.1.1,Win32,60.13229104
-3.529962547,1.3755,1.27340824,1.8329,0,308,308,396,1,683_a004ad18331da968da5debdd15e1447dd7748750af0bc6c57b844200_orig.jpg,-2.91956,2.466524,original,vamo24,2022-05-05_14h33.07.365,ratings,2022.1.1,Win32,60.13229104
-1.06741573,3.6862,0.842696629,4.1609,0,309,309,142,1,353_44e285740cb41818482ac93fc5fbd72c18029444a1d7506c9fc053e7_circblurint.jpg,-3.232676,-0.87108,circularblurringint,vamo24,2022-05-05_14h33.07.365,ratings,2022.1.1,Win32,60.13229104
-0.346441948,1.0062,-0.421348315,1.511,0,310,310,590,1,1228_557412d34d6a70b7c5d222e030aa485b351a4574e8ba1a3112d1d13d_edges.jpg,2.137444,0.703464,edges,vamo24,2022-05-05_14h33.07.365,ratings,2022.1.1,Win32,60.13229104
-0.514981273,1.6084,-0.627340824,2.1441,0,311,311,127,1,349_18d92ef5c21ca70a3dd237aad251594e1688bbe01d8cff37b89c46b8_bw.jpg,-2.74874,-1.258228,blackwhite,vamo24,2022-05-05_14h33.07.365,ratings,2022.1.1,Win32,60.13229104
-0.337078652,1.1249,-0.31835206,1.661,0,312,312,266,1,431_ab5a1dbbe9292ac7f74e276cdabcd372e2c1f852ff34bf7cc6646ef8_edges.jpg,3.102584,0.354334,edges,vamo24,2022-05-05_14h33.07.365,ratings,2022.1.1,Win32,60.13229104
-2.874531835,3.5931,1.488764045,4.1637,0,313,313,163,1,361_b5541309527dc3c2422f45a95ebb0ed32005e6fe10d0489a1ff1fbdc_bw.jpg,-3.987612,-0.2516452,blackwhite,vamo24,2022-05-05_14h33.07.365,ratings,2022.1.1,Win32,60.13229104
-0.43071161,1.628,-0.31835206,2.2278,0,314,314,196,1,379_eeaa6d9bf5a4ef205dc48bc505cf3a7f24ea86e99af9b371e03602a7_circblurint.jpg,-0.3926308,2.88936,circularblurringint,vamo24,2022-05-05_14h33.07.365,ratings,2022.1.1,Win32,60.13229104
-0.402621723,1.416,-0.580524345,2.4323,0,315,315,214,1,394_8e3a0cb945144d53bd1ace04b6256237ed9dcbbd9cb83f8a4886b0e6_circblurint.jpg,-2.593884,2.651956,circularblurringint,vamo24,2022-05-05_14h33.07.365,ratings,2022.1.1,Win32,60.13229104
-0.458801498,1.0737,-0.346441948,1.5402,0,316,316,591,1,1228_557412d34d6a70b7c5d222e030aa485b351a4574e8ba1a3112d1d13d_blur.jpg,2.137444,0.703464,blurring,vamo24,2022-05-05_14h33.07.365,ratings,2022.1.1,Win32,60.13229104
-3.370786517,1.1075,3.108614232,1.6913,0,317,317,492,1,824_b1d91cc824ce0d3d383d3147da88d3d6dbaf6be918bab79e3ec8f501_orig.jpg,-3.645176,-1.432784,original,vamo24,2022-05-05_14h33.07.365,ratings,2022.1.1,Win32,60.13229104
2.303370787,1.0608,2.162921348,1.9809,0,318,318,0,1,13_771f4fcf0a212d25d6a78565e7f34cc5ddd823e7afbdc77ef063326e_orig.jpg,2.190476,0.0,original,vamo24,2022-05-05_14h33.07.365,ratings,2022.1.1,Win32,60.13229104
-3.651685393,3.0272,2.256554307,1.893,0,319,319,85,1,243_beddb302dcb21071d88c8d2cab07002050d36b3001ef28f89389fa56_bw.jpg,-0.3450656,-0.2070392,blackwhite,vamo24,2022-05-05_14h33.07.365,ratings,2022.1.1,Win32,60.13229104
-0.543071161,1.5742,-0.327715356,2.0751,0,320,320,587,1,1225_59c67a821456f2cce3e5acf66d7f00076bd02caffc984c1eb0df794e_circblurext.jpg,-0.444444,3.809524,circularblurringext,vamo24,2022-05-05_14h33.07.365,ratings,2022.1.1,Win32,60.13229104
-0.337078652,1.4915,-0.383895131,2.0307,0,321,321,490,1,818_877aae033c31e3bbca4486321a5307f87cf53c576c546462d3daf194_circblurint.jpg,-1.277584,0.619436,circularblurringint,vamo24,2022-05-05_14h33.07.365,ratings,2022.1.1,Win32,60.13229104
0.355805243,1.0412,-0.926966292,1.8754,0,322,322,96,1,267_792043debad81ce271cec5b3c3bd9d264efc13f362bec9c7a3f72fe7_orig.jpg,1.980616,0.2107036,original,vamo24,2022-05-05_14h33.07.365,ratings,2022.1.1,Win32,60.13229104
1.582397004,1.073,1.694756554,1.5982,0,323,323,114,1,332_4d584229bdae2e1782f77f0e953e528f13c3dfa79b4b94736c0310fa_orig.jpg,3.157348,0.483092,original,vamo24,2022-05-05_14h33.07.365,ratings,2022.1.1,Win32,60.13229104
0.842696629,1.4815,-1.235955056,2.033,0,324,324,450,1,716_2ab64478147184c4df720a52cf621875addc9007cb2967e4a9a88909_orig.jpg,2.428484,0.0,original,vamo24,2022-05-05_14h33.07.365,ratings,2022.1.1,Win32,60.13229104
-0.47752809,0.8468,-0.458801498,1.4627,0,325,325,525,1,877_cab3efed0c9ff4552037df6c1ea4ea9713f915c94592a14dbf2799da_blur.jpg,3.174604,0.3174604,blurring,vamo24,2022-05-05_14h33.07.365,ratings,2022.1.1,Win32,60.13229104
-0.43071161,1.1245,-0.355805243,1.6308,0,326,326,464,1,736_bb85db1bcda8eb34299aa5791ac65a0a7c343266eb2d6e6e328ec0e1_edges.jpg,3.650792,-0.03174604,edges,vamo24,2022-05-05_14h33.07.365,ratings,2022.1.1,Win32,60.13229104
1.563670412,1.75,1.292134831,2.3494,0,327,327,391,1,663_aaf52107fe3a86392530d88b34e86f9d2b6820714cad98d1e3c2cb67_bw.jpg,2.58766,0.0918696,blackwhite,vamo24,2022-05-05_14h33.07.365,ratings,2022.1.1,Win32,60.13229104
0.383895131,3.2449,-0.936329588,1.6772,0,328,328,101,1,267_792043debad81ce271cec5b3c3bd9d264efc13f362bec9c7a3f72fe7_circblurext.jpg,1.980616,0.2107036,circularblurringext,vamo24,2022-05-05_14h33.07.365,ratings,2022.1.1,Win32,60.13229104
3.277153558,1.0774,3.314606742,1.7411,0,329,329,48,1,112_b6a4ce721c2e42943d7d8b168751d74cd2f372b1cd4fed5a4404faec_orig.jpg,2.107036,0.505688,original,vamo24,2022-05-05_14h33.07.365,ratings,2022.1.1,Win32,60.13229104
-1.647940075,2.6266,2.724719101,5.6816,0,330,330,270,1,434_ba36d91204d7e578001f6a545d7501e65d209554def5a3c8b7583825_orig.jpg,-3.523808,1.428572,original,vamo24,2022-05-05_14h33.07.365,ratings,2022.1.1,Win32,60.13229104
-1.563670412,1.4757,1.722846442,2.5635,0,331,331,364,1,508_a7a9519cdc7aad6844030f4e6cd96cffd1b9c49b71e20ea52789bda2_circblurint.jpg,-3.000388,-1.29694,circularblurringint,vamo24,2022-05-05_14h33.07.365,ratings,2022.1.1,Win32,60.13229104
1.320224719,2.2597,1.507490637,2.8669,0,332,332,276,1,440_9bf7e8609729bf888835168834da6c3ff30b75d0d4f36e2ee6918bcc_orig.jpg,-2.284164,2.710028,original,vamo24,2022-05-05_14h33.07.365,ratings,2022.1.1,Win32,60.13229104
-0.411985019,1.0408,-0.299625468,1.6068,0,333,333,255,1,416_5eb54976bb41ce2a6d129ef985f792e716f010fb9b69b15f50f5d2db_blur.jpg,-2.58766,2.602972,blurring,vamo24,2022-05-05_14h33.07.365,ratings,2022.1.1,Win32,60.13229104
-0.458801498,0.9925,-0.393258427,1.5602,0,334,334,104,1,284_cdcbd54fc995081ac95c8b2c37a19cebb341f61a8eb268cee1623492_edges.jpg,-1.015872,2.095236,edges,vamo24,2022-05-05_14h33.07.365,ratings,2022.1.1,Win32,60.13229104
-0.496254682,1.0905,-0.402621723,1.6905,0,335,335,339,1,492_a1a4d288d3bc486c83c3b6a835c42891989f5ba781633932298a7676_blur.jpg,3.406892,-0.44522,blurring,vamo24,2022-05-05_14h33.07.365,ratings,2022.1.1,Win32,60.13229104
-0.664794007,2.3014,-0.383895131,2.9601,0,336,336,514,1,858_2f6539ee36aba48c38dc716d4f7c3ae93367d6ddf23ab41745d4172c_circblurint.jpg,0.0623832,0.176752,circularblurringint,vamo24,2022-05-05_14h33.07.365,ratings,2022.1.1,Win32,60.13229104
-0.271535581,5.7375,1.395131086,6.6018,0,337,337,498,1,854_081a8409e4d6d10923b2dedcc16a3fca405fcd602e55a20d84cac69d_orig.jpg,3.088264,1.21538,original,vamo24,2022-05-05_14h33.07.365,ratings,2022.1.1,Win32,60.13229104
-0.187265918,1.1585,-0.458801498,1.7673,0,338,338,321,1,460_e06b3af7ff2f2bfb5f9b6e3d5dc25b9aaa40b84823fac8fd934621bd_blur.jpg,-3.430992,-1.607468,blurring,vamo24,2022-05-05_14h33.07.365,ratings,2022.1.1,Win32,60.13229104
-3.323970037,2.5813,1.292134831,3.2612,0,339,339,335,1,482_a1cd28915c5044c018195ab0fff10dcc95e385246b045a7cd4463ff7_circblurext.jpg,-3.361852,-1.555612,circularblurringext,vamo24,2022-05-05_14h33.07.365,ratings,2022.1.1,Win32,60.13229104
-0.31835206,1.0831,-0.702247191,1.7584,0,340,340,576,1,1061_665178b9cb0bc869cc2e2b68def4838db04e66f9531098fb75875a09_orig.jpg,0.3492064,-0.3174604,original,vamo24,2022-05-05_14h33.07.365,ratings,2022.1.1,Win32,60.13229104
0.945692884,1.0913,-0.739700375,2.0606,0,341,341,61,1,156_08e8cf8f04630e9213e610580de73f51572d1d589878648700bae4dc_bw.jpg,2.222224,0.0,blackwhite,vamo24,2022-05-05_14h33.07.365,ratings,2022.1.1,Win32,60.13229104
0.571161049,1.1573,0.599250936,1.6743,0,342,342,431,1,694_7a14b8ab7c564dcb0f628c4de7f6cb54e4c5f6601f774bf167641c37_circblurext.jpg,1.819588,0.116144,circularblurringext,vamo24,2022-05-05_14h33.07.365,ratings,2022.1.1,Win32,60.13229104
0.271535581,1.0962,0.571161049,1.6402,0,343,343,466,1,736_bb85db1bcda8eb34299aa5791ac65a0a7c343266eb2d6e6e328ec0e1_circblurint.jpg,3.650792,-0.03174604,circularblurringint,vamo24,2022-05-05_14h33.07.365,ratings,2022.1.1,Win32,60.13229104
-0.711610487,1.1401,-0.58988764,2.1761,0,344,344,500,1,854_081a8409e4d6d10923b2dedcc16a3fca405fcd602e55a20d84cac69d_edges.jpg,3.088264,1.21538,edges,vamo24,2022-05-05_14h33.07.365,ratings,2022.1.1,Win32,60.13229104
1.001872659,1.1295,1.048689139,1.6417,0,345,345,39,1,82_43f4d5aec7c2e5bd495473f6708a0f2d47c9fe34e1fe9436646cb036_blur.jpg,2.022756,0.505688,blurring,vamo24,2022-05-05_14h33.07.365,ratings,2022.1.1,Win32,60.13229104
0.046816479,1.1429,-0.140449438,1.738,0,346,346,46,1,92_5d20d78a8e57e628c6930676473a4e0a485e715841efd6286c660020_circblurint.jpg,2.126984,0.0,circularblurringint,vamo24,2022-05-05_14h33.07.365,ratings,2022.1.1,Win32,60.13229104
-0.486891386,0.9916,-0.468164794,1.4962,0,347,347,374,1,620_9674719009d75dcfeaed7f15932c43e1fd1af5e25d47b8aadd61efe2_edges.jpg,-0.561364,1.142084,edges,vamo24,2022-05-05_14h33.07.365,ratings,2022.1.1,Win32,60.13229104
-0.327715356,1.0069,-0.440074906,1.4957,0,348,348,491,1,818_877aae033c31e3bbca4486321a5307f87cf53c576c546462d3daf194_circblurext.jpg,-1.277584,0.619436,circularblurringext,vamo24,2022-05-05_14h33.07.365,ratings,2022.1.1,Win32,60.13229104
-0.402621723,0.9993,-0.411985019,1.6636,0,349,349,272,1,434_ba36d91204d7e578001f6a545d7501e65d209554def5a3c8b7583825_edges.jpg,-3.523808,1.428572,edges,vamo24,2022-05-05_14h33.07.365,ratings,2022.1.1,Win32,60.13229104
-0.440074906,0.9085,-0.262172285,1.3449,0,350,350,269,1,431_ab5a1dbbe9292ac7f74e276cdabcd372e2c1f852ff34bf7cc6646ef8_circblurext.jpg,3.102584,0.354334,circularblurringext,vamo24,2022-05-05_14h33.07.365,ratings,2022.1.1,Win32,60.13229104
1.694756554,1.9089,1.292134831,2.4305,0,351,351,185,1,369_98db62a1bdabfd1bc551180da6658005b461585cd21614633cf76470_circblurext.jpg,2.190476,-0.03174604,circularblurringext,vamo24,2022-05-05_14h33.07.365,ratings,2022.1.1,Win32,60.13229104
-0.683520599,1.0474,-0.524344569,1.6735,0,352,352,595,1,1239_cee00457f4cfb76a407b12fd5ad714d440a4614c1e5467ee16caf618_bw.jpg,-0.03174604,0.190476,blackwhite,vamo24,2022-05-05_14h33.07.365,ratings,2022.1.1,Win32,60.13229104
-0.524344569,0.8974,-0.421348315,1.497,0,353,353,172,1,365_45a719cabbc9aa308c4fcb30d529489c6966ac4073874af84f665c61_circblurint.jpg,2.507936,-1.968252,circularblurringint,vamo24,2022-05-05_14h33.07.365,ratings,2022.1.1,Win32,60.13229104
-0.43071161,0.9918,-0.290262172,1.542,0,354,354,593,1,1228_557412d34d6a70b7c5d222e030aa485b351a4574e8ba1a3112d1d13d_circblurext.jpg,2.137444,0.703464,circularblurringext,vamo24,2022-05-05_14h33.07.365,ratings,2022.1.1,Win32,60.13229104
0.880149813,1.1171,-1.91011236,1.8092,0,355,355,168,1,365_45a719cabbc9aa308c4fcb30d529489c6966ac4073874af84f665c61_orig.jpg,2.507936,-1.968252,original,vamo24,2022-05-05_14h33.07.365,ratings,2022.1.1,Win32,60.13229104
0.730337079,1.2285,-1.039325843,1.6758,0,356,356,198,1,380_34772591c787182a37724027eac6948ebc9d4064f6a601d23b923b8e_orig.jpg,2.222224,-0.063492,original,vamo24,2022-05-05_14h33.07.365,ratings,2022.1.1,Win32,60.13229104
-0.458801498,1.3806,-0.196629213,1.892,0,357,357,286,1,440_dc6413e2b65369ee2587f4d85621742fe4ca87392d0a8ad2ea7d94e3_circblurint.jpg,-3.016216,1.69404,circularblurringint,vamo24,2022-05-05_14h33.07.365,ratings,2022.1.1,Win32,60.13229104
-0.411985019,2.3912,1.27340824,2.942,0,358,358,325,1,468_8b69b13120daebadd8a4a3166e1419f2404395cba231307a4efa9fde_bw.jpg,2.031744,0.2539684,blackwhite,vamo24,2022-05-05_14h33.07.365,ratings,2022.1.1,Win32,60.13229104
2.378277154,1.1456,2.490636704,1.714,0,359,359,53,1,112_b6a4ce721c2e42943d7d8b168751d74cd2f372b1cd4fed5a4404faec_circblurext.jpg,2.107036,0.505688,circularblurringext,vamo24,2022-05-05_14h33.07.365,ratings,2022.1.1,Win32,60.13229104
-0.383895131,1.0812,-0.664794007,2.5767,0,360,360,530,1,915_dc9fd40a3b5d64a180833a7bac86e7556c24f681f473fe255e41f936_edges.jpg,-3.09294,-0.918696,edges,vamo24,2022-05-05_14h33.07.365,ratings,2022.1.1,Win32,60.13229104
0.271535581,1.1327,-1.020599251,2.6768,0,361,361,301,1,453_54f106fd1d4b65fa4aa347407127fc30d49f791e81aee3a0bbe44489_bw.jpg,2.222224,0.0,blackwhite,vamo24,2022-05-05_14h33.07.365,ratings,2022.1.1,Win32,60.13229104
1.11423221,1.0578,1.207865169,2.8259,0,362,362,73,1,236_f645730e1eb06155418c9a571329cc7fa320654fcaaedf1048b5cc11_bw.jpg,2.253968,0.0,blackwhite,vamo24,2022-05-05_14h33.07.365,ratings,2022.1.1,Win32,60.13229104
-0.533707865,1.1255,-0.327715356,2.4099,0,363,363,489,1,818_877aae033c31e3bbca4486321a5307f87cf53c576c546462d3daf194_blur.jpg,-1.277584,0.619436,blurring,vamo24,2022-05-05_14h33.07.365,ratings,2022.1.1,Win32,60.13229104
-0.468164794,1.2984,-0.337078652,1.8087,0,364,364,477,1,748_e519892faa7c772a0afaf9eeff36cf0e411574027ab3d9aa4947a048_blur.jpg,-1.813112,3.307432,blurring,vamo24,2022-05-05_14h33.07.365,ratings,2022.1.1,Win32,60.13229104
0.580524345,3.1935,-0.31835206,1.765,0,365,365,201,1,380_34772591c787182a37724027eac6948ebc9d4064f6a601d23b923b8e_blur.jpg,2.222224,-0.063492,blurring,vamo24,2022-05-05_14h33.07.365,ratings,2022.1.1,Win32,60.13229104
-0.449438202,1.1275,-0.102996255,1.7441,0,366,366,212,1,394_8e3a0cb945144d53bd1ace04b6256237ed9dcbbd9cb83f8a4886b0e6_edges.jpg,-2.593884,2.651956,edges,vamo24,2022-05-05_14h33.07.365,ratings,2022.1.1,Win32,60.13229104
0.964419476,1.242,-1.292134831,1.8255,0,367,367,379,1,640_0ddb4981a5f5842ed5b4f7ef941be53779189df5e718b1fc5475ad80_bw.jpg,2.571428,-1.873016,blackwhite,vamo24,2022-05-05_14h33.07.365,ratings,2022.1.1,Win32,60.13229104
0.252808989,1.0601,0.009363296,1.6588,0,368,368,100,1,267_792043debad81ce271cec5b3c3bd9d264efc13f362bec9c7a3f72fe7_circblurint.jpg,1.980616,0.2107036,circularblurringint,vamo24,2022-05-05_14h33.07.365,ratings,2022.1.1,Win32,60.13229104
0.917602996,3.0773,0.74906367,1.6738,0,369,369,189,1,369_c99797771115d7627d4abe3415f814497288f91a7be1a04c17c776b9_blur.jpg,3.619824,-0.174216,blurring,vamo24,2022-05-05_14h33.07.365,ratings,2022.1.1,Win32,60.13229104
-2.397003745,3.7264,0.299625468,4.8689,0,370,370,88,1,243_beddb302dcb21071d88c8d2cab07002050d36b3001ef28f89389fa56_circblurint.jpg,-0.3450656,-0.2070392,circularblurringint,vamo24,2022-05-05_14h33.07.365,ratings,2022.1.1,Win32,60.13229104
0.337078652,3.0685,-1.001872659,1.9636,0,371,371,91,1,258_d26019382777d2159a974a7654923e71598135ce2cd710cea1f92865_bw.jpg,3.497684,-0.61104,blackwhite,vamo24,2022-05-05_14h33.07.365,ratings,2022.1.1,Win32,60.13229104
-0.421348315,1.0261,-0.224719101,1.5788,0,372,372,434,1,694_f80f33613b268beffd6c044537cf3b44a84683d6e889bc37b8e9c34b_edges.jpg,-0.3785616,3.34728,edges,vamo24,2022-05-05_14h33.07.365,ratings,2022.1.1,Win32,60.13229104
-1.001872659,3.9815,0.702247191,4.9655,0,373,373,282,1,440_dc6413e2b65369ee2587f4d85621742fe4ca87392d0a8ad2ea7d94e3_orig.jpg,-3.016216,1.69404,original,vamo24,2022-05-05_14h33.07.365,ratings,2022.1.1,Win32,60.13229104
-3.492509363,1.1298,2.968164794,2.6821,0,374,374,319,1,460_e06b3af7ff2f2bfb5f9b6e3d5dc25b9aaa40b84823fac8fd934621bd_bw.jpg,-3.430992,-1.607468,blackwhite,vamo24,2022-05-05_14h33.07.365,ratings,2022.1.1,Win32,60.13229104
-0.084269663,1.64,1.011235955,2.5781,0,375,375,324,1,468_8b69b13120daebadd8a4a3166e1419f2404395cba231307a4efa9fde_orig.jpg,2.031744,0.2539684,original,vamo24,2022-05-05_14h33.07.365,ratings,2022.1.1,Win32,60.13229104
-0.440074906,0.9416,-0.205992509,1.5336,0,376,376,209,1,381_5935a9f9796adce2f1539af6c75bcdc0c80d847a2ce9b77cf59b7672_circblurext.jpg,-1.327432,-0.442476,circularblurringext,vamo24,2022-05-05_14h33.07.365,ratings,2022.1.1,Win32,60.13229104
-0.393258427,1.2588,-0.449438202,1.7753,0,377,377,74,1,236_f645730e1eb06155418c9a571329cc7fa320654fcaaedf1048b5cc11_edges.jpg,2.253968,0.0,edges,vamo24,2022-05-05_14h33.07.365,ratings,2022.1.1,Win32,60.13229104
-3.099250936,1.3418,1.938202247,2.0411,0,378,378,404,1,686_6745b57686ad5d1bd6cf3e7ed5bc0243a154f8939e88e30321dfcfdb_edges.jpg,-1.523808,3.650792,edges,vamo24,2022-05-05_14h33.07.365,ratings,2022.1.1,Win32,60.13229104
0.599250936,1.0407,0.992509363,1.6742,0,379,379,285,1,440_dc6413e2b65369ee2587f4d85621742fe4ca87392d0a8ad2ea7d94e3_blur.jpg,-3.016216,1.69404,blurring,vamo24,2022-05-05_14h33.07.365,ratings,2022.1.1,Win32,60.13229104
-2.265917603,1.694,2.116104869,2.2928,0,380,380,273,1,434_ba36d91204d7e578001f6a545d7501e65d209554def5a3c8b7583825_blur.jpg,-3.523808,1.428572,blurring,vamo24,2022-05-05_14h33.07.365,ratings,2022.1.1,Win32,60.13229104
-0.505617978,0.9804,-0.280898876,1.5081,0,381,381,357,1,500_3b520c7f352afa1a9f8c07e56cc0588cdc04d25ff6e7b602b5e280cb_blur.jpg,-0.8328,3.11766,blurring,vamo24,2022-05-05_14h33.07.365,ratings,2022.1.1,Win32,60.13229104
0.926966292,1.2063,0.861423221,1.8402,0,382,382,14,1,39_2fafccaa4dc69045a05845f59c6b3cd2edcf7e0e0c108b24e553afe0_edges.jpg,2.022756,0.463548,edges,vamo24,2022-05-05_14h33.07.365,ratings,2022.1.1,Win32,60.13229104
0.290262172,1.0738,-1.161048689,1.6741,0,383,383,202,1,380_34772591c787182a37724027eac6948ebc9d4064f6a601d23b923b8e_circblurint.jpg,2.222224,-0.063492,circularblurringint,vamo24,2022-05-05_14h33.07.365,ratings,2022.1.1,Win32,60.13229104
0.290262172,1.1083,-1.779026217,2.2096,0,384,384,469,1,741_2b218fb015e3da83db73cacdb52e61e0c2534c1fe255bb1c5c74d47f_bw.jpg,3.140096,0.448584,blackwhite,vamo24,2022-05-05_14h33.07.365,ratings,2022.1.1,Win32,60.13229104
-0.393258427,1.5104,-0.346441948,2.2073,0,385,385,155,1,355_00a76f54934d36566dd0e7b091b8aa6a56d8e6b32d349aa578a10b45_circblurext.jpg,2.910052,0.3439152,circularblurringext,vamo24,2022-05-05_14h33.07.365,ratings,2022.1.1,Win32,60.13229104
0.31835206,1.664,-0.983146067,2.2745,0,386,386,97,1,267_792043debad81ce271cec5b3c3bd9d264efc13f362bec9c7a3f72fe7_bw.jpg,1.980616,0.2107036,blackwhite,vamo24,2022-05-05_14h33.07.365,ratings,2022.1.1,Win32,60.13229104
-0.31835206,1.0756,-0.31835206,1.5614,0,387,387,94,1,258_d26019382777d2159a974a7654923e71598135ce2cd710cea1f92865_circblurint.jpg,3.497684,-0.61104,circularblurringint,vamo24,2022-05-05_14h33.07.365,ratings,2022.1.1,Win32,60.13229104
-0.065543071,4.4504,1.722846442,5.1308,0,388,388,43,1,92_5d20d78a8e57e628c6930676473a4e0a485e715841efd6286c660020_bw.jpg,2.126984,0.0,blackwhite,vamo24,2022-05-05_14h33.07.365,ratings,2022.1.1,Win32,60.13229104
0.823970037,1.2737,-1.151685393,2.1741,0,389,389,199,1,380_34772591c787182a37724027eac6948ebc9d4064f6a601d23b923b8e_bw.jpg,2.222224,-0.063492,blackwhite,vamo24,2022-05-05_14h33.07.365,ratings,2022.1.1,Win32,60.13229104
-0.046816479,1.1262,-0.655430712,1.9431,0,390,390,5,1,13_771f4fcf0a212d25d6a78565e7f34cc5ddd823e7afbdc77ef063326e_circblurext.jpg,2.190476,0.0,circularblurringext,vamo24,2022-05-05_14h33.07.365,ratings,2022.1.1,Win32,60.13229104
-0.337078652,1.1586,-0.402621723,1.7469,0,391,391,323,1,460_e06b3af7ff2f2bfb5f9b6e3d5dc25b9aaa40b84823fac8fd934621bd_circblurext.jpg,-3.430992,-1.607468,circularblurringext,vamo24,2022-05-05_14h33.07.365,ratings,2022.1.1,Win32,60.13229104
-0.552434457,3.5,1.985018727,4.0424,0,392,392,367,1,616_05a637f5281666f53d4e2ef69351485fc21d629b37ee2006b2076eb6_bw.jpg,-2.380952,-0.832364,blackwhite,vamo24,2022-05-05_14h33.07.365,ratings,2022.1.1,Win32,60.13229104
0.187265918,1.4912,-1.27340824,3.476,0,393,393,504,1,855_66d893451dfd1e7615132071c6c8a82b02dc2b37781cd89400883b26_orig.jpg,2.69484,0.2143624,original,vamo24,2022-05-05_14h33.07.365,ratings,2022.1.1,Win32,60.13229104
0.440074906,1.6261,0.571161049,3.4176,0,394,394,471,1,741_2b218fb015e3da83db73cacdb52e61e0c2534c1fe255bb1c5c74d47f_blur.jpg,3.140096,0.448584,blurring,vamo24,2022-05-05_14h33.07.365,ratings,2022.1.1,Win32,60.13229104
-1.095505618,4.0765,2.078651685,3.4598,0,395,395,406,1,686_6745b57686ad5d1bd6cf3e7ed5bc0243a154f8939e88e30321dfcfdb_circblurint.jpg,-1.523808,3.650792,circularblurringint,vamo24,2022-05-05_14h33.07.365,ratings,2022.1.1,Win32,60.13229104
-0.43071161,1.1246,-0.299625468,1.7919,0,396,396,309,1,455_34a7d8167619d110206c369e3f7dce8a3f99db763a9d8e2b956501d3_blur.jpg,-2.526412,-0.3827896,blurring,vamo24,2022-05-05_14h33.07.365,ratings,2022.1.1,Win32,60.13229104
0.823970037,1.0259,0.646067416,1.6091,0,397,397,378,1,640_0ddb4981a5f5842ed5b4f7ef941be53779189df5e718b1fc5475ad80_orig.jpg,2.571428,-1.873016,original,vamo24,2022-05-05_14h33.07.365,ratings,2022.1.1,Win32,60.13229104
-3.071161049,1.2445,1.844569288,1.8278,0,398,398,240,1,411_adfd0d5782129756321ff671d0cfb712528504c66c863df11aabd1e7_orig.jpg,-3.392332,-1.369576,original,vamo24,2022-05-05_14h33.07.365,ratings,2022.1.1,Win32,60.13229104
-0.43071161,1.1087,-0.299625468,1.7263,0,399,399,122,1,347_27f0e47c2722605b950ccf9fa900f78271e4c3c874064ab5dacac160_edges.jpg,1.838948,0.3097172,edges,vamo24,2022-05-05_14h33.07.365,ratings,2022.1.1,Win32,60.13229104
-0.505617978,1.4916,-0.374531835,2.2257,0,400,400,388,1,646_577760d718dab44c6f04d77408c5644a120065ce07a9503957d0850a_circblurint.jpg,-2.690668,2.61324,circularblurringint,vamo24,2022-05-05_14h33.07.365,ratings,2022.1.1,Win32,60.13229104
-0.393258427,1.146,-0.43071161,1.7143,0,401,401,224,1,403_57ac47f43882fc031a6067b1a388c0b2cbe8708dcbd2ff1019932eff_edges.jpg,-3.333332,-1.396824,edges,vamo24,2022-05-05_14h33.07.365,ratings,2022.1.1,Win32,60.13229104
0.58988764,1.4162,0.674157303,2.0815,0,402,402,336,1,492_a1a4d288d3bc486c83c3b6a835c42891989f5ba781633932298a7676_orig.jpg,3.406892,-0.44522,original,vamo24,2022-05-05_14h33.07.365,ratings,2022.1.1,Win32,60.13229104
-0.552434457,3.3595,-0.280898876,3.9824,0,403,403,455,1,716_2ab64478147184c4df720a52cf621875addc9007cb2967e4a9a88909_circblurext.jpg,2.428484,0.0,circularblurringext,vamo24,2022-05-05_14h33.07.365,ratings,2022.1.1,Win32,60.13229104
-3.56741573,1.3258,2.265917603,1.8803,0,404,404,135,1,349_8809a67686d34844c915d7700e2ea72ad1c02ae232ae0d3cc0e458d4_blur.jpg,-3.619048,-0.2857144,blurring,vamo24,2022-05-05_14h33.07.365,ratings,2022.1.1,Win32,60.13229104
-0.543071161,1.1575,-0.599250936,1.7411,0,405,405,248,1,414_0187bdf7007109b487865b6a9d388997a6817acf052a6a7cdd5b39d9_edges.jpg,-2.786708,-1.133056,edges,vamo24,2022-05-05_14h33.07.365,ratings,2022.1.1,Win32,60.13229104
-0.393258427,1.2248,-0.31835206,1.8252,0,406,406,579,1,1061_665178b9cb0bc869cc2e2b68def4838db04e66f9531098fb75875a09_blur.jpg,0.3492064,-0.3174604,blurring,vamo24,2022-05-05_14h33.07.365,ratings,2022.1.1,Win32,60.13229104
-0.468164794,1.0447,-0.393258427,1.6125,0,407,407,195,1,379_eeaa6d9bf5a4ef205dc48bc505cf3a7f24ea86e99af9b371e03602a7_blur.jpg,-0.3926308,2.88936,blurring,vamo24,2022-05-05_14h33.07.365,ratings,2022.1.1,Win32,60.13229104
0.234082397,1.1253,-0.767790262,1.7176,0,408,408,70,1,172_c641c6c56ca6b594b773084e1363c852abdb65f988d7ff802ee503f2_circblurint.jpg,0.379572,0.01725328,circularblurringint,vamo24,2022-05-05_14h33.07.365,ratings,2022.1.1,Win32,60.13229104
-3.539325843,1.5091,1.132958801,2.1429,0,409,409,537,1,986_a77edb21e78bc3a6aa7406517824596b3496ad6c657b6befb84cf370_blur.jpg,-3.906316,-0.60496,blurring,vamo24,2022-05-05_14h33.07.365,ratings,2022.1.1,Win32,60.13229104
-1.975655431,2.0182,1.451310861,2.6821,0,410,410,197,1,379_eeaa6d9bf5a4ef205dc48bc505cf3a7f24ea86e99af9b371e03602a7_circblurext.jpg,-0.3926308,2.88936,circularblurringext,vamo24,2022-05-05_14h33.07.365,ratings,2022.1.1,Win32,60.13229104
-0.43071161,1.5738,-0.505617978,2.6577,0,411,411,291,1,442_7449d79dae5d652af9b2429872cabdef938646ba024db2f431b3b28d_blur.jpg,1.619048,0.126984,blurring,vamo24,2022-05-05_14h33.07.365,ratings,2022.1.1,Win32,60.13229104
0.608614232,3.4684,-0.739700375,4.1787,0,412,412,225,1,403_57ac47f43882fc031a6067b1a388c0b2cbe8708dcbd2ff1019932eff_blur.jpg,-3.333332,-1.396824,blurring,vamo24,2022-05-05_14h33.07.365,ratings,2022.1.1,Win32,60.13229104
2.144194757,2.2661,1.853932584,1.6579,0,413,413,174,1,368_6507b94d7d0199f14efd3706db30c9c44b96085f84e9cc7792e3e0ae_orig.jpg,1.959544,0.400336,original,vamo24,2022-05-05_14h33.07.365,ratings,2022.1.1,Win32,60.13229104
-0.393258427,1.193,-0.458801498,1.6491,0,414,414,260,1,416_8a1f874e0057d67a4e6955865ba88b2d8ce2c8b4469589307687a723_edges.jpg,-1.753336,3.088264,edges,vamo24,2022-05-05_14h33.07.365,ratings,2022.1.1,Win32,60.13229104
1.629213483,1.1272,1.507490637,1.6419,0,415,415,473,1,741_2b218fb015e3da83db73cacdb52e61e0c2534c1fe255bb1c5c74d47f_circblurext.jpg,3.140096,0.448584,circularblurringext,vamo24,2022-05-05_14h33.07.365,ratings,2022.1.1,Win32,60.13229104
-3.661048689,1.142,3.558052434,1.6743,0,416,416,132,1,349_8809a67686d34844c915d7700e2ea72ad1c02ae232ae0d3cc0e458d4_orig.jpg,-3.619048,-0.2857144,original,vamo24,2022-05-05_14h33.07.365,ratings,2022.1.1,Win32,60.13229104
-0.646067416,1.4439,0.758426966,2.1252,0,417,417,329,1,468_8b69b13120daebadd8a4a3166e1419f2404395cba231307a4efa9fde_circblurext.jpg,2.031744,0.2539684,circularblurringext,vamo24,2022-05-05_14h33.07.365,ratings,2022.1.1,Win32,60.13229104
-0.421348315,1.0421,-0.327715356,1.5786,0,418,418,598,1,1239_cee00457f4cfb76a407b12fd5ad714d440a4614c1e5467ee16caf618_circblurint.jpg,-0.03174604,0.190476,circularblurringint,vamo24,2022-05-05_14h33.07.365,ratings,2022.1.1,Win32,60.13229104
-0.43071161,1.1098,-0.337078652,1.6615,0,419,419,417,1,692_7d7eaf20e6de8956f0fca7500ace97a8599aa8b605a7d690cdb28724_blur.jpg,-2.063492,-1.26984,blurring,vamo24,2022-05-05_14h33.07.365,ratings,2022.1.1,Win32,60.13229104
0.805243446,2.2269,0.63670412,2.7269,0,420,420,232,1,407_578d31d32e806706dde2563213f130b90e621abfed0e47ecabd85d27_circblurint.jpg,3.5873,-0.444444,circularblurringint,vamo24,2022-05-05_14h33.07.365,ratings,2022.1.1,Win32,60.13229104
-2.078651685,1.9008,1.264044944,2.8934,0,421,421,415,1,692_7d7eaf20e6de8956f0fca7500ace97a8599aa8b605a7d690cdb28724_bw.jpg,-2.063492,-1.26984,blackwhite,vamo24,2022-05-05_14h33.07.365,ratings,2022.1.1,Win32,60.13229104
0.533707865,0.9001,-1.020599251,2.0841,0,422,422,40,1,82_43f4d5aec7c2e5bd495473f6708a0f2d47c9fe34e1fe9436646cb036_circblurint.jpg,2.022756,0.505688,circularblurringint,vamo24,2022-05-05_14h33.07.365,ratings,2022.1.1,Win32,60.13229104
0.9082397,4.4301,0.814606742,3.8263,0,423,423,505,1,855_66d893451dfd1e7615132071c6c8a82b02dc2b37781cd89400883b26_bw.jpg,2.69484,0.2143624,blackwhite,vamo24,2022-05-05_14h33.07.365,ratings,2022.1.1,Win32,60.13229104
-0.458801498,0.9144,-0.374531835,1.4989,0,424,424,105,1,284_cdcbd54fc995081ac95c8b2c37a19cebb341f61a8eb268cee1623492_blur.jpg,-1.015872,2.095236,blurring,vamo24,2022-05-05_14h33.07.365,ratings,2022.1.1,Win32,60.13229104
-0.468164794,1.125,-0.383895131,1.7085,0,425,425,93,1,258_d26019382777d2159a974a7654923e71598135ce2cd710cea1f92865_blur.jpg,3.497684,-0.61104,blurring,vamo24,2022-05-05_14h33.07.365,ratings,2022.1.1,Win32,60.13229104
-0.009363296,2.7269,0.337078652,3.5445,0,426,426,543,1,1005_b980c0747d20935bc63cc27a9e05ce2ff5bae98f859872ec48edd7f5_blur.jpg,3.428572,-0.476192,blurring,vamo24,2022-05-05_14h33.07.365,ratings,2022.1.1,Win32,60.13229104
1.151685393,1.6746,0.47752809,2.2131,0,427,427,75,1,236_f645730e1eb06155418c9a571329cc7fa320654fcaaedf1048b5cc11_blur.jpg,2.253968,0.0,blurring,vamo24,2022-05-05_14h33.07.365,ratings,2022.1.1,Win32,60.13229104
-0.543071161,1.3753,-0.383895131,2.0261,0,428,428,158,1,358_157f8ac929713531a15b1ecf115e7b659cb90e83d675251e368d165f_edges.jpg,-3.777776,-0.571428,edges,vamo24,2022-05-05_14h33.07.365,ratings,2022.1.1,Win32,60.13229104
-0.571161049,1.217,-0.524344569,1.7438,0,429,429,26,1,59_8568373b727f29d67ba6ce4c360dd918c8b08b13495fca56bdda5e82_edges.jpg,2.064896,0.505688,edges,vamo24,2022-05-05_14h33.07.365,ratings,2022.1.1,Win32,60.13229104
0.973782772,2.0094,-1.020599251,2.6097,0,430,430,452,1,716_2ab64478147184c4df720a52cf621875addc9007cb2967e4a9a88909_edges.jpg,2.428484,0.0,edges,vamo24,2022-05-05_14h33.07.365,ratings,2022.1.1,Win32,60.13229104
-0.468164794,1.2256,-0.337078652,1.7594,0,431,431,389,1,646_577760d718dab44c6f04d77408c5644a120065ce07a9503957d0850a_circblurext.jpg,-2.690668,2.61324,circularblurringext,vamo24,2022-05-05_14h33.07.365,ratings,2022.1.1,Win32,60.13229104
-0.561797753,1.0247,-0.280898876,1.5753,0,432,432,437,1,694_f80f33613b268beffd6c044537cf3b44a84683d6e889bc37b8e9c34b_circblurext.jpg,-0.3785616,3.34728,circularblurringext,vamo24,2022-05-05_14h33.07.365,ratings,2022.1.1,Win32,60.13229104
-0.402621723,0.9656,-0.327715356,1.5498,0,433,433,575,1,1039_d64da8480fc6e94dcdc513237d600570ae0b9fe48795ac6a8b2d29a7_circblurext.jpg,-2.507936,-1.142856,circularblurringext,vamo24,2022-05-05_14h33.07.365,ratings,2022.1.1,Win32,60.13229104
-0.252808989,1.2267,1.029962547,3.1464,0,434,434,252,1,416_5eb54976bb41ce2a6d129ef985f792e716f010fb9b69b15f50f5d2db_orig.jpg,-2.58766,2.602972,original,vamo24,2022-05-05_14h33.07.365,ratings,2022.1.1,Win32,60.13229104
2.968164794,1.9807,2.846441948,2.5938,0,435,435,180,1,369_98db62a1bdabfd1bc551180da6658005b461585cd21614633cf76470_orig.jpg,2.190476,-0.03174604,original,vamo24,2022-05-05_14h33.07.365,ratings,2022.1.1,Win32,60.13229104
0.224719101,1.2415,0.234082397,2.476,0,436,436,144,1,354_e46c3ec6fb00773f64f2bcd212385f253c389808fe724b7cf8611051_orig.jpg,2.018292,0.0,original,vamo24,2022-05-05_14h33.07.365,ratings,2022.1.1,Win32,60.13229104
-0.47752809,1.1254,-0.533707865,1.6759,0,437,437,192,1,379_eeaa6d9bf5a4ef205dc48bc505cf3a7f24ea86e99af9b371e03602a7_orig.jpg,-0.3926308,2.88936,original,vamo24,2022-05-05_14h33.07.365,ratings,2022.1.1,Win32,60.13229104
-0.486891386,1.0586,-0.224719101,1.709,0,438,438,55,1,137_0e6a04243c0a42a5e2528a2d181255ca2a4b7bd6e7978c5c2059c69f_bw.jpg,-0.95238,2.095236,blackwhite,vamo24,2022-05-05_14h33.07.365,ratings,2022.1.1,Win32,60.13229104
-0.280898876,1.3477,-0.337078652,1.8915,0,439,439,461,1,720_483c541c48959a597fcf44320941afaf8b7695105f90d65b5f6b30f2_circblurext.jpg,2.158732,-0.2539684,circularblurringext,vamo24,2022-05-05_14h33.07.365,ratings,2022.1.1,Win32,60.13229104
-3.679775281,1.4349,3.436329588,2.4437,0,440,440,534,1,986_a77edb21e78bc3a6aa7406517824596b3496ad6c657b6befb84cf370_orig.jpg,-3.906316,-0.60496,original,vamo24,2022-05-05_14h33.07.365,ratings,2022.1.1,Win32,60.13229104
-0.552434457,2.6833,0.702247191,3.3476,0,441,441,395,1,663_aaf52107fe3a86392530d88b34e86f9d2b6820714cad98d1e3c2cb67_circblurext.jpg,2.58766,0.0918696,circularblurringext,vamo24,2022-05-05_14h33.07.365,ratings,2022.1.1,Win32,60.13229104
1.207865169,1.2259,1.348314607,1.9093,0,442,442,468,1,741_2b218fb015e3da83db73cacdb52e61e0c2534c1fe255bb1c5c74d47f_orig.jpg,3.140096,0.448584,original,vamo24,2022-05-05_14h33.07.365,ratings,2022.1.1,Win32,60.13229104
-2.846441948,1.4255,2.584269663,1.9763,0,443,443,358,1,500_3b520c7f352afa1a9f8c07e56cc0588cdc04d25ff6e7b602b5e280cb_circblurint.jpg,-0.8328,3.11766,circularblurringint,vamo24,2022-05-05_14h33.07.365,ratings,2022.1.1,Win32,60.13229104
-1.020599251,1.5137,2.565543071,2.1083,0,444,444,402,1,686_6745b57686ad5d1bd6cf3e7ed5bc0243a154f8939e88e30321dfcfdb_orig.jpg,-1.523808,3.650792,original,vamo24,2022-05-05_14h33.07.365,ratings,2022.1.1,Win32,60.13229104
-0.374531835,1.3619,-0.561797753,1.9937,0,445,445,475,1,748_e519892faa7c772a0afaf9eeff36cf0e411574027ab3d9aa4947a048_bw.jpg,-1.813112,3.307432,blackwhite,vamo24,2022-05-05_14h33.07.365,ratings,2022.1.1,Win32,60.13229104
-0.43071161,1.0579,-0.365168539,1.6317,0,446,446,527,1,877_cab3efed0c9ff4552037df6c1ea4ea9713f915c94592a14dbf2799da_circblurext.jpg,3.174604,0.3174604,circularblurringext,vamo24,2022-05-05_14h33.07.365,ratings,2022.1.1,Win32,60.13229104
